File: XRD_csv/CCM-14D 2.csv
Angle,Intensity
5.99618,818
6.05467,867
6.11316,836
6.17165,847
6.23014,811
6.28863,793
6.34711,730
6.4056,707
6.46409,761
6.52258,693
6.58107,678
6.63956,669
6.69805,662
6.75654,653
6.81503,675
6.87352,646
6.93201,621
6.9905,637
7.04899,558
7.10748,617
7.16597,561
7.22446,571
7.28295,605
7.34143,560
7.39992,530
7.45841,527
7.5169,550
7.57539,570
7.63388,481
7.69237,558
7.75086,521
7.80935,525
7.86784,528
7.92633,513
7.98482,553
8.04331,473
8.1018,495
8.16029,491
8.21878,500
8.27727,524
8.33576,510
8.39424,518
8.45273,488
8.51122,519
8.56971,507
8.6282,521
8.68669,487
8.74518,520
8.80367,515
8.86216,536
8.92065,576
8.97914,547
9.03763,572
9.09612,625
9.15461,537
9.2131,503
9.27159,495
9.33008,538
9.38857,499
9.44705,513
9.50554,476
9.56403,461
9.62252,481
9.68101,452
9.7395,484
9.79799,471
9.85648,481
9.91497,468
9.97346,485
10.0319,491
10.0904,441
10.1489,435
10.2074,430
10.2659,450
10.3244,448
10.3829,540
10.4414,420
10.4999,445
10.5584,430
10.6168,433
10.6753,440
10.7338,431
10.7923,443
10.8508,424
10.9093,407
10.9678,372
11.0263,448
11.0848,397
11.1432,425
11.2017,411
11.2602,441
11.3187,376
11.3772,410
11.4357,422
11.4942,386
11.5527,421
11.6112,398
11.6697,379
11.7281,421
11.7866,387
11.8451,375
11.9036,371
11.9621,369
12.0206,372
12.0791,393
12.1376,378
12.1961,346
12.2545,331
12.313,322
12.3715,329
12.43,357
12.4885,349
12.547,317
12.6055,344
12.664,317
12.7225,345
12.781,349
12.8394,312
12.8979,350
12.9564,290
13.0149,294
13.0734,360
13.1319,366
13.1904,336
13.2489,316
13.3074,325
13.3658,331
13.4243,312
13.4828,337
13.5413,350
13.5998,318
13.6583,329
13.7168,326
13.7753,348
13.8338,353
13.8923,326
13.9507,327
14.0092,294
14.0677,318
14.1262,323
14.1847,312
14.2432,292
14.3017,312
14.3602,318
14.4187,316
14.4771,323
14.5356,304
14.5941,280
14.6526,297
14.7111,290
14.7696,286
14.8281,288
14.8866,316
14.9451,323
15.0036,329
15.062,308
15.1205,272
15.179,320
15.2375,274
15.296,284
15.3545,296
15.413,276
15.4715,310
15.53,288
15.5884,310
15.6469,291
15.7054,342
15.7639,379
15.8224,355
15.8809,326
15.9394,318
15.9979,273
16.0564,279
16.1149,291
16.1733,289
16.2318,269
16.2903,283
16.3488,246
16.4073,305
16.4658,347
16.5243,293
16.5828,279
16.6413,265
16.6997,264
16.7582,262
16.8167,259
16.8752,280
16.9337,273
16.9922,299
17.0507,272
17.1092,262
17.1677,251
17.2262,268
17.2846,253
17.3431,256
17.4016,248
17.4601,242
17.5186,279
17.5771,274
17.6356,250
17.6941,253
17.7526,285
17.811,288
17.8695,323
17.928,336
17.9865,402
18.045,399
18.1035,332
18.162,261
18.2205,257
18.279,278
18.3375,239
18.3959,300
18.4544,264
18.5129,278
18.5714,278
18.6299,257
18.6884,248
18.7469,261
18.8054,259
18.8639,247
18.9223,286
18.9808,282
19.0393,270
19.0978,295
19.1563,250
19.2148,269
19.2733,231
19.3318,258
19.3903,249
19.4487,254
19.5072,258
19.5657,233
19.6242,261
19.6827,258
19.7412,231
19.7997,260
19.8582,257
19.9167,272
19.9752,256
20.0336,252
20.0921,284
20.1506,251
20.2091,224
20.2676,259
20.3261,244
20.3846,271
20.4431,244
20.5016,230
20.56,240
20.6185,244
20.677,307
20.7355,358
20.794,591
20.8525,591
20.911,352
20.9695,307
21.028,390
21.0865,271
21.1449,259
21.2034,271
21.2619,235
21.3204,253
21.3789,265
21.4374,252
21.4959,236
21.5544,259
21.6129,235
21.6713,263
21.7298,219
21.7883,256
21.8468,251
21.9053,214
21.9638,217
22.0223,295
22.0808,256
22.1393,264
22.1978,270
22.2562,360
22.3147,308
22.3732,251
22.4317,251
22.4902,233
22.5487,238
22.6072,229
22.6657,299
22.7242,240
22.7826,233
22.8411,263
22.8996,299
22.9581,328
23.0166,370
23.0751,338
23.1336,310
23.1921,360
23.2506,313
23.3091,272
23.3675,269
23.426,272
23.4845,284
23.543,352
23.6015,283
23.66,251
23.7185,226
23.777,237
23.8355,235
23.8939,264
23.9524,322
24.0109,372
24.0694,357
24.1279,286
24.1864,307
24.2449,296
24.3034,284
24.3619,282
24.4204,281
24.4788,220
24.5373,251
24.5958,239
24.6543,264
24.7128,296
24.7713,301
24.8298,248
24.8883,246
24.9468,272
25.0052,264
25.0637,249
25.1222,254
25.1807,236
25.2392,254
25.2977,265
25.3562,257
25.4147,292
25.4732,264
25.5317,318
25.5901,292
25.6486,340
25.7071,299
25.7656,276
25.8241,288
25.8826,286
25.9411,304
25.9996,257
26.0581,280
26.1165,263
26.175,331
26.2335,377
26.292,371
26.3505,361
26.409,507
26.4675,506
26.526,687
26.5845,2957
26.643,4653
26.7014,2096
26.7599,745
26.8184,416
26.8769,318
26.9354,311
26.9939,293
27.0524,307
27.1109,300
27.1694,291
27.2278,304
27.2863,291
27.3448,313
27.4033,483
27.4618,452
27.5203,435
27.5788,345
27.6373,293
27.6958,297
27.7543,536
27.8127,571
27.8712,587
27.9297,629
27.9882,455
28.0467,374
28.1052,253
28.1637,328
28.2222,263
28.2807,288
28.3391,257
28.3976,253
28.4561,262
28.5146,258
28.5731,303
28.6316,294
28.6901,268
28.7486,308
28.8071,279
28.8655,249
28.924,301
28.9825,323
29.041,313
29.0995,321
29.158,329
29.2165,335
29.275,367
29.3335,431
29.392,495
29.4504,484
29.5089,366
29.5674,343
29.6259,366
29.6844,331
29.7429,283
29.8014,305
29.8599,278
29.9184,284
29.9768,259
30.0353,297
30.0938,283
30.1523,301
30.2108,359
30.2693,363
30.3278,337
30.3863,335
30.4448,329
30.5033,274
30.5617,261
30.6202,247
30.6787,276
30.7372,312
30.7957,292
30.8542,334
30.91268,326
30.9712,281
31.0297,289
31.0881,307
31.1466,292
31.2051,281
31.2636,239
31.3221,278
31.3806,269
31.4391,257
31.4976,236
31.5561,238
31.6146,260
31.673,264
31.7315,242
31.79,262
31.8485,243
31.907,278
31.9655,248
32.024,300
32.0825,316
32.141,360
32.1994,375
32.2579,324
32.3164,345
32.3749,357
32.4334,299
32.4919,302
32.5504,321
32.6089,294
32.6674,285
32.7259,289
32.7843,283
32.8428,276
32.9013,251
32.9598,280
33.0183,276
33.0768,275
33.1353,262
33.1938,239
33.2523,264
33.3107,211
33.3692,229
33.4277,248
33.4862,235
33.5447,235
33.6032,250
33.6617,258
33.7202,263
33.7787,248
33.8372,268
33.8956,262
33.9541,317
34.0126,344
34.0711,340
34.1296,325
34.1881,324
34.2466,374
34.3051,365
34.3636,252
34.422,232
34.4805,208
34.539,203
34.5975,219
34.656,217
34.7145,237
34.773,227
34.8315,248
34.89,228
34.9485,246
35.0069,258
35.0654,250
35.1239,304
35.1824,276
35.2409,250
35.2994,244
35.3579,204
35.4164,221
35.4749,209
35.5333,228
35.5918,200
35.6503,229
35.7088,215
35.7673,203
35.8258,220
35.8843,204
35.9428,209
36.0013,212
36.0598,235
36.1182,238
36.1767,219
36.2352,193
36.2937,220
36.3522,227
36.4107,241
36.4692,486
36.5277,1124
36.5862,729
36.6446,654
36.7031,267
36.7616,225
36.8201,214
36.8786,227
36.9371,188
36.9956,210
37.0541,185
37.1126,210
37.1711,192
37.2295,180
37.288,160
37.3465,210
37.405,179
37.4635,193
37.522,186
37.5805,169
37.639,175
37.6975,173
37.7559,186
37.8144,185
37.8729,169
37.9314,203
37.9899,178
38.0484,166
38.1069,150
38.1654,194
38.2239,175
38.2823,183
38.3408,189
38.3993,173
38.4578,193
38.5163,210
38.5748,189
38.6333,201
38.6918,185
38.7503,186
38.8088,192
38.8672,192
38.9257,200
38.9842,177
39.0427,187
39.1012,193
39.1597,187
39.2182,194
39.2767,188
39.3352,207
39.3936,264
39.4521,344
39.5106,335
39.5691,279
39.6276,196
39.6861,207
39.7446,164
39.8031,164
39.8616,160
39.9201,151
39.9785,167
40.037,197
40.0955,164
40.154,194
40.2125,158
40.271,227
40.3295,199
40.388,184
40.4465,186
40.5049,171
40.5634,184
40.6219,190
40.6804,186
40.7389,194
40.7974,217
40.8559,242
40.9144,232
40.9729,212
41.0314,203
41.0898,200
41.1483,232
41.2068,207
41.2653,209
41.3238,190
41.3823,173
41.4408,185
41.4993,228
41.5578,194
41.6162,195
41.6747,176
41.7332,182
41.7917,210
41.8502,230
41.9087,204
41.9672,200
42.0257,193
42.0842,171
42.1427,172
42.2011,184
42.2596,196
42.3181,196
42.3766,206
42.4351,268
42.4936,219
42.5521,235
42.6106,217
42.6691,218
42.7275,205
42.786,214
42.8445,166
42.903,173
42.9615,196
43.02,188
43.0785,193
43.137,163
43.1955,157
43.254,179
43.3124,182
43.3709,171
43.4294,200
43.4879,185
43.5464,165
43.6049,172
43.6634,162
43.7219,153
43.7804,186
43.8388,152
43.8973,183
43.9558,166
44.0143,205
44.0728,193
44.1313,186
44.1898,212
44.2483,211
44.3068,198
44.3653,164
44.4237,174
44.4822,161
44.5407,179
44.5992,169
44.6577,173
44.7162,151
44.7747,174
44.8332,160
44.8917,154
44.9501,131
45.0086,145
45.0671,176
45.1256,167
45.1841,148
45.2426,164
45.3011,142
45.3596,175
45.4181,172
45.4766,161
45.535,167
45.5935,194
45.652,201
45.7105,224
45.769,243
45.8275,232
45.886,217
45.9445,182
46.003,163
46.0614,173
46.1199,152
46.1784,195
46.2369,163
46.2954,157
46.3539,174
46.4124,163
46.4709,152
46.5294,146
46.5879,151
46.6463,185
46.7048,182
46.7633,167
46.8218,141
46.8803,196
46.9388,171
46.9973,208
47.0558,217
47.1143,230
47.1727,206
47.2312,216
47.2897,193
47.3482,167
47.4067,175
47.4652,186
47.5237,175
47.5822,175
47.6407,185
47.6991,158
47.7576,147
47.8161,155
47.8746,143
47.9331,147
47.9916,166
48.0501,154
48.1086,156
48.1671,160
48.2256,171
48.284,162
48.3425,185
48.401,145
48.4595,168
48.518,158
48.5765,157
48.635,153
48.6935,180
48.752,158
48.8104,177
48.8689,206
48.9274,178
48.9859,195
49.0444,195
49.1029,175
49.1614,203
49.2199,189
49.2784,210
49.3369,180
49.3953,205
49.4538,156
49.5123,153
49.5708,145
49.6293,164
49.6878,147
49.7463,180
49.8048,194
49.8633,229
49.9217,214
49.9802,199
50.0387,219
50.0972,267
50.1557,270
50.2142,216
50.2727,194
50.3312,187
50.3897,164
50.4482,171
50.5066,174
50.5651,165
50.6236,163
50.6821,195
50.7406,188
50.7991,168
50.8576,187
50.9161,177
50.9746,162
51.033,145
51.0915,160
51.15,145
51.2085,135
51.267,148
51.3255,169
51.384,142
51.4425,140
51.501,135
51.5595,166
51.6179,135
51.6764,166
51.7349,136
51.7934,156
51.8519,143
51.9104,143
51.9689,151
52.0274,126
52.0859,125
52.1443,134
52.2028,145
52.2613,116
52.3198,145
52.3783,135
52.4368,133
52.4953,156
52.5538,162
52.6123,122
52.6708,122
52.7292,158
52.7877,168
52.8462,133
52.9047,140
52.9632,160
53.0217,139
53.0802,154
53.1387,168
53.1972,128
53.2556,147
53.3141,152
53.3726,152
53.4311,143
53.4896,156
53.5481,134
53.6066,144
53.6651,158
53.7236,152
53.7821,144
53.8405,122
53.899,156
53.9575,144
54.016,166
54.0745,142
54.133,161
54.1915,144
54.25,144
54.3085,167
54.3669,146
54.4254,157
54.4839,148
54.5424,154
54.6009,147
54.6594,151
54.7179,143
54.7764,171
54.8349,195
54.8934,183
54.9518,155
55.0103,180
55.0688,155
55.1273,155
55.1858,171
55.2443,172
55.3028,193
55.3613,165
55.4198,125
55.4782,158
55.5367,155
55.5952,156
55.6537,150
55.7122,151
55.7707,150
55.8292,112
55.8877,137
55.9462,147
56.0047,132
56.0631,150
56.1216,131
56.1801,141
56.2386,152
56.2971,152
56.3556,140
56.4141,155
56.4726,124
56.5311,147
56.5895,168
56.648,128
56.7065,143
56.765,134
56.8235,139
56.882,168
56.9405,130
56.999,137
57.0575,135
57.1159,147
57.1744,158
57.2329,142
57.2914,124
57.3499,153
57.4084,118
57.4669,154
57.5254,145
57.5839,163
57.6424,121
57.7008,148
57.7593,134
57.8178,124
57.8763,142
57.9348,141
57.9933,141
58.0518,133
58.1103,137
58.1688,150
58.2272,132
58.2857,146
58.3442,151
58.4027,134
58.4612,134
58.5197,150
58.5782,137
58.6367,163
58.6952,156
58.7537,151
58.8121,142
58.8706,129
58.9291,131
58.9876,124
59.0461,145
59.1046,137
59.1631,125
59.2216,116
59.2801,146
59.3385,126
59.397,153
59.4555,155
59.514,123
59.5725,112
59.631,142
59.6895,153
59.748,152
59.8065,152
59.865,171
59.9234,285
59.9819,267
60.0404,183
60.0989,226
60.1574,205
60.2159,148
60.2744,141
60.3329,148
60.3914,128
60.4498,135
60.5083,135
60.5668,171
60.6253,137
60.6838,150
60.7423,134
60.8008,161
60.8593,133
60.9178,168
60.9763,133
61.0347,146
61.0932,147
61.1517,136
61.2102,121
61.2687,137
61.3272,128
61.3857,123
61.4442,134
61.5027,123
61.5611,107
61.6196,121
61.6781,153
61.7366,131
61.7951,140
61.8536,129
61.9121,120
61.9706,126
62.0291,150
62.0876,139
62.146,126
62.2045,123
62.263,137
62.3215,145
62.38,155
62.4385,120
62.497,146
62.5555,151
62.614,164
62.6724,115
62.7309,146
62.7894,148
62.8479,131
62.9064,129
62.9649,145
63.0234,116
63.0819,150
63.1404,139
63.1989,121
63.2573,150
63.3158,130
63.3743,110
63.4328,131
63.4913,115
63.5498,113
63.6083,143
63.6668,115
63.7253,146
63.7837,151
63.8422,140
63.9007,142
63.9592,139
64.0177,174
64.0762,161
64.1347,136
64.1932,153
64.2517,126
64.3102,123
64.3686,142
64.4271,154
64.4856,130
64.5441,116
64.6026,114
64.6611,131
64.7196,140
64.7781,134
64.8366,122
64.895,150
64.9535,132
65.012,141
65.0705,118
65.129,158
65.1875,134
65.246,129
65.3045,146
65.363,134
65.4215,134
65.4799,121
65.5384,153
65.5969,135
65.6554,137
65.7139,136
65.7724,123
65.8309,109
65.8894,116
65.9479,147
66.0063,151
66.0648,101
66.1233,101
66.1818,120
66.2403,120
66.2988,118
66.3573,140
66.4158,120
66.4743,111
66.5328,111
66.5912,137
66.6497,102
66.7082,122
66.7667,116
66.8252,111
66.8837,103
66.9422,123
67.0007,121
67.0592,120
67.1176,139
67.1761,119
67.2346,101
67.2931,130
67.3516,118
67.4101,112
67.4686,113
67.5271,133
67.5856,135
67.644,141
67.7025,178
67.761,244
67.8195,158
67.878,176
67.9365,173
67.995,150
68.0535,156
68.112,244
68.1705,158
68.2289,166
68.2874,220
68.3459,208
68.4044,135
68.4629,153
68.5214,147
68.5799,114
68.6384,92
68.6969,119
68.7553,118
68.8138,118
68.8723,111
68.9308,114
68.9893,109
69.0478,121
69.1063,107
69.1648,112
69.2233,113
69.2818,113
69.3402,121
69.3987,124
69.4572,112
69.5157,112
69.5742,146
69.6327,134
69.6912,120
69.7497,128
69.8082,123
69.8666,109
69.9251,171
69.9836,163
70.0421,150
70.1006,140
70.1591,139
70.2176,132
70.2761,116
70.3346,136
70.3931,103
70.4515,116
70.51,114
70.5685,139
70.627,111
70.6855,121
70.744,118
70.8025,102
70.861,103
70.9195,114
70.9779,102
71.0364,123
71.0949,135
71.1534,121
71.2119,118
71.2704,107
71.3289,122
71.3874,125
71.4459,100
71.5044,103
71.5628,120
71.6213,100
71.6798,122
71.7383,131
71.7968,104
71.8553,118
71.9138,111
71.9723,124
72.0308,118
72.0892,96
72.1477,126
72.2062,107
72.2647,101
72.3232,104
72.3817,110
72.4402,105
72.4987,111
72.5572,122
72.6157,110
72.6741,105
72.7326,96
72.7911,119
72.8496,107
72.9081,99
72.9666,102
73.0251,124
73.0836,131
73.1421,130
73.2005,109
73.259,104
73.3175,107
73.376,101
73.4345,109
73.493,133
73.5515,128
73.61,105
73.6685,120
73.727,121
73.7854,133
73.8439,105
73.9024,103
73.9609,124
74.0194,109
74.0779,120
74.1364,123
74.1949,105
74.2534,111
74.3118,116
74.3703,114
74.4288,115
74.4873,93
74.5458,114
74.6043,112
74.6628,119
74.7213,99
74.7798,111
74.8383,122
74.8967,110
74.9552,113
75.0137,125
75.0722,112
75.1307,93
75.1892,109
75.2477,116
75.3062,140
75.3647,101
75.4231,119
75.4816,110
75.5401,122
75.5986,143
75.6571,152
75.7156,124
75.7741,131
75.8326,126
75.8911,92
75.9496,111
76.008,105
76.0665,118
76.125,101
76.1835,116
76.242,108
76.3005,91
76.359,114
76.4175,101
76.476,100
76.5344,104
76.5929,120
76.6514,116
76.7099,94
76.7684,97
76.8269,108
76.8854,101
76.9439,96
77.0024,111
77.0608,86
77.1193,93
77.1778,113
77.2363,121
77.2948,120
77.3533,123
77.4118,123
77.4703,130
77.5288,180
77.5873,367
77.6457,588
77.7042,249
77.7627,150
77.8212,267
77.8797,317
77.9382,173
77.9967,109
78.0552,105
78.1137,99
78.1721,100
78.2306,118
78.2891,111
78.3476,118
78.4061,86
78.4646,101
78.5231,107
78.5816,93
78.6401,102
78.6986,123
78.757,114
78.8155,91
78.874,118
78.9325,93
78.991,109
79.0495,99
79.108,91
79.1665,103
79.225,93
79.2834,98
79.3419,96
79.4004,113
79.4589,115
79.5174,108
79.5759,89
79.6344,112
79.6929,107
79.7514,103
79.8099,120
79.8683,133
79.9268,105
79.9853,118
80.0438,128
80.1023,128
80.1608,109
80.2193,102
80.2778,119
80.3363,96
80.3947,99
80.4532,110
80.5117,101
80.5702,118
80.6287,119
80.6872,110
80.7457,101
80.8042,93
80.8627,124
80.9212,105
80.9796,109
81.0381,112
81.0966,103
81.1551,139
81.2136,146
81.2721,137
81.3306,122
81.3891,124
81.4476,161
81.506,111
81.5645,108
81.623,119
81.6815,110
81.74,104
81.7985,102
81.857,101
81.9155,110
81.974,92
82.0325,94
82.0909,101
82.1494,108
82.2079,93
82.2664,87
82.3249,75
82.3834,119
82.4419,108
82.5004,97
82.5589,89
82.6173,103
82.6758,93
82.7343,99
82.7928,104
82.8513,105
82.9098,125
82.9683,128
83.0268,99
83.0853,83
83.1438,93
83.2022,91
83.2607,101
83.3192,100
83.3777,86
83.4362,99
83.4947,114
83.5532,97
83.6117,109
83.6702,123
83.7286,104
83.7871,100
83.8456,120
83.9041,94
83.9626,114
84.0211,113
84.0796,113
84.1381,110
84.1966,101
84.2551,102
84.3135,79
84.372,87
84.4305,126
84.489,110
84.5475,108
84.606,119
84.6645,98
84.723,123
84.7815,112
84.8399,97
84.8984,119
84.9569,110
85.0154,116
85.0739,102
85.1324,109
85.1909,114
85.2494,104
85.3079,119
85.3664,104
85.4248,122
85.4833,105
85.5418,93
85.6003,101
85.6588,86
85.7173,115
85.7758,110
85.8343,94
85.8928,107
85.9512,91
86.0097,110
86.0682,92
86.1267,102
86.1852,103
86.2437,107
86.3022,86
86.3607,80
86.4192,107
86.4776,107
86.5361,108
86.5946,114
86.6531,110
86.7116,103
86.7701,88
86.8286,98
86.8871,119
86.9456,108
87.0041,90
87.0625,123
87.121,87
87.1795,105
87.238,100
87.2965,89
87.355,92
87.4135,96
87.472,98
87.5305,101
87.5889,102
87.6474,131
87.7059,92
87.7644,103
87.8229,114
87.8814,112
87.9399,98
87.9984,105
88.0569,104
88.1154,101
88.1738,93
88.2323,98
88.2908,82
88.3493,109
88.4078,118
88.4663,103
88.5248,103
88.5833,89
88.6418,107
88.7002,97
88.7587,100
88.8172,113
88.8757,109
88.9342,105
88.9927,99
89.0512,98
89.1097,100
89.1682,93
89.2267,88
89.2851,99
89.3436,105
89.4021,98
89.4606,88
89.5191,76
89.5776,98
89.6361,93
89.6946,107
89.7531,99
89.8115,122
89.87,80
89.9285,77
89.987,87
89.9954,89