File: XRD_csv/CCM-14D 1.csv
Angle,Intensity
5.99618,888
6.05467,845
6.11316,856
6.17165,784
6.23014,821
6.28863,774
6.34711,754
6.4056,764
6.46409,710
6.52258,722
6.58107,741
6.63956,695
6.69805,684
6.75654,730
6.81503,688
6.87352,695
6.93201,623
6.9905,688
7.04899,631
7.10748,604
7.16597,611
7.22446,617
7.28295,552
7.34143,614
7.39992,647
7.45841,569
7.5169,557
7.57539,595
7.63388,567
7.69237,595
7.75086,534
7.80935,568
7.86784,555
7.92633,583
7.98482,572
8.04331,567
8.1018,587
8.16029,538
8.21878,557
8.27727,549
8.33576,531
8.39424,544
8.45273,523
8.51122,571
8.56971,513
8.6282,540
8.68669,524
8.74518,473
8.80367,531
8.86216,541
8.92065,549
8.97914,573
9.03763,622
9.09612,665
9.15461,611
9.2131,546
9.27159,535
9.33008,542
9.38857,564
9.44705,508
9.50554,503
9.56403,559
9.62252,524
9.68101,473
9.7395,521
9.79799,526
9.85648,551
9.91497,517
9.97346,481
10.0319,518
10.0904,500
10.1489,452
10.2074,529
10.2659,508
10.3244,484
10.3829,429
10.4414,460
10.4999,446
10.5584,450
10.6168,470
10.6753,457
10.7338,472
10.7923,459
10.8508,443
10.9093,450
10.9678,413
11.0263,473
11.0848,444
11.1432,431
11.2017,433
11.2602,406
11.3187,450
11.3772,418
11.4357,453
11.4942,445
11.5527,440
11.6112,398
11.6697,402
11.7281,421
11.7866,343
11.8451,402
11.9036,424
11.9621,356
12.0206,396
12.0791,406
12.1376,386
12.1961,368
12.2545,376
12.313,340
12.3715,349
12.43,397
12.4885,393
12.547,337
12.6055,371
12.664,388
12.7225,339
12.781,366
12.8394,376
12.8979,345
12.9564,374
13.0149,343
13.0734,376
13.1319,355
13.1904,339
13.2489,354
13.3074,348
13.3658,348
13.4243,350
13.4828,335
13.5413,340
13.5998,344
13.6583,409
13.7168,384
13.7753,316
13.8338,321
13.8923,338
13.9507,321
14.0092,343
14.0677,306
14.1262,325
14.1847,331
14.2432,310
14.3017,290
14.3602,304
14.4187,280
14.4771,306
14.5356,293
14.5941,314
14.6526,281
14.7111,281
14.7696,315
14.8281,285
14.8866,315
14.9451,291
15.0036,293
15.062,314
15.1205,306
15.179,301
15.2375,297
15.296,304
15.3545,289
15.413,291
15.4715,326
15.53,334
15.5884,300
15.6469,281
15.7054,336
15.7639,370
15.8224,356
15.8809,328
15.9394,322
15.9979,301
16.0564,313
16.1149,306
16.1733,312
16.2318,297
16.2903,299
16.3488,302
16.4073,301
16.4658,322
16.5243,268
16.5828,276
16.6413,305
16.6997,265
16.7582,285
16.8167,306
16.8752,281
16.9337,270
16.9922,280
17.0507,265
17.1092,248
17.1677,274
17.2262,284
17.2846,291
17.3431,276
17.4016,260
17.4601,286
17.5186,284
17.5771,270
17.6356,269
17.6941,280
17.7526,306
17.811,313
17.8695,324
17.928,333
17.9865,427
18.045,491
18.1035,378
18.162,270
18.2205,264
18.279,256
18.3375,254
18.3959,288
18.4544,259
18.5129,286
18.5714,254
18.6299,267
18.6884,276
18.7469,260
18.8054,267
18.8639,273
18.9223,299
18.9808,297
19.0393,314
19.0978,268
19.1563,290
19.2148,244
19.2733,276
19.3318,272
19.3903,270
19.4487,262
19.5072,224
19.5657,252
19.6242,263
19.6827,296
19.7412,280
19.7997,268
19.8582,279
19.9167,285
19.9752,282
20.0336,259
20.0921,262
20.1506,269
20.2091,267
20.2676,262
20.3261,278
20.3846,251
20.4431,269
20.5016,261
20.56,273
20.6185,264
20.677,285
20.7355,321
20.794,350
20.8525,556
20.911,716
20.9695,408
21.028,325
21.0865,283
21.1449,261
21.2034,305
21.2619,251
21.3204,264
21.3789,246
21.4374,249
21.4959,241
21.5544,242
21.6129,271
21.6713,248
21.7298,244
21.7883,248
21.8468,260
21.9053,261
21.9638,278
22.0223,313
22.0808,265
22.1393,302
22.1978,246
22.2562,262
22.3147,282
22.3732,263
22.4317,275
22.4902,257
22.5487,251
22.6072,261
22.6657,270
22.7242,243
22.7826,295
22.8411,272
22.8996,311
22.9581,333
23.0166,368
23.0751,360
23.1336,329
23.1921,272
23.2506,290
23.3091,265
23.3675,246
23.426,291
23.4845,305
23.543,369
23.6015,379
23.66,281
23.7185,262
23.777,248
23.8355,270
23.8939,261
23.9524,280
24.0109,291
24.0694,291
24.1279,264
24.1864,243
24.2449,257
24.3034,268
24.3619,301
24.4204,260
24.4788,262
24.5373,261
24.5958,253
24.6543,288
24.7128,252
24.7713,263
24.8298,292
24.8883,273
24.9468,303
25.0052,288
25.0637,235
25.1222,233
25.1807,233
25.2392,262
25.2977,247
25.3562,244
25.4147,264
25.4732,307
25.5317,324
25.5901,290
25.6486,295
25.7071,263
25.7656,263
25.8241,264
25.8826,286
25.9411,264
25.9996,294
26.0581,280
26.1165,274
26.175,281
26.2335,352
26.292,345
26.3505,414
26.409,487
26.4675,587
26.526,651
26.5845,1435
26.643,2764
26.7014,1932
26.7599,1104
26.8184,363
26.8769,317
26.9354,304
26.9939,343
27.0524,425
27.1109,425
27.1694,363
27.2278,352
27.2863,392
27.3448,461
27.4033,1223
27.4618,2177
27.5203,1457
27.5788,564
27.6373,361
27.6958,324
27.7543,343
27.8127,316
27.8712,348
27.9297,505
27.9882,736
28.0467,463
28.1052,336
28.1637,305
28.2222,343
28.2807,304
28.3391,283
28.3976,273
28.4561,269
28.5146,284
28.5731,254
28.6316,322
28.6901,312
28.7486,286
28.8071,263
28.8655,303
28.924,276
28.9825,276
29.041,284
29.0995,337
29.158,328
29.2165,340
29.275,409
29.3335,428
29.392,504
29.4504,502
29.5089,456
29.5674,396
29.6259,356
29.6844,332
29.7429,324
29.8014,313
29.8599,296
29.9184,306
29.9768,268
30.0353,262
30.0938,274
30.1523,328
30.2108,321
30.2693,279
30.3278,265
30.3863,318
30.4448,300
30.5033,311
30.5617,280
30.6202,284
30.6787,263
30.7372,321
30.7957,301
30.8542,275
30.91268,295
30.9712,281
31.0297,332
31.0881,280
31.1466,301
31.2051,285
31.2636,250
31.3221,288
31.3806,281
31.4391,241
31.4976,227
31.5561,225
31.6146,260
31.673,279
31.7315,257
31.79,278
31.8485,231
31.907,250
31.9655,252
32.024,285
32.0825,302
32.141,310
32.1994,294
32.2579,321
32.3164,306
32.3749,283
32.4334,338
32.4919,311
32.5504,326
32.6089,320
32.6674,308
32.7259,303
32.7843,310
32.8428,275
32.9013,264
32.9598,247
33.0183,260
33.0768,242
33.1353,249
33.1938,268
33.2523,264
33.3107,254
33.3692,250
33.4277,246
33.4862,260
33.5447,238
33.6032,228
33.6617,243
33.7202,251
33.7787,241
33.8372,282
33.8956,289
33.9541,301
34.0126,293
34.0711,289
34.1296,370
34.1881,343
34.2466,294
34.3051,272
34.3636,248
34.422,240
34.4805,207
34.539,206
34.5975,231
34.656,206
34.7145,215
34.773,260
34.8315,261
34.89,283
34.9485,230
35.0069,246
35.0654,271
35.1239,301
35.1824,297
35.2409,278
35.2994,262
35.3579,228
35.4164,239
35.4749,230
35.5333,212
35.5918,232
35.6503,182
35.7088,187
35.7673,214
35.8258,199
35.8843,258
35.9428,205
36.0013,227
36.0598,215
36.1182,178
36.1767,235
36.2352,187
36.2937,186
36.3522,210
36.4107,195
36.4692,212
36.5277,271
36.5862,314
36.6446,241
36.7031,238
36.7616,208
36.8201,207
36.8786,210
36.9371,238
36.9956,211
37.0541,219
37.1126,209
37.1711,180
37.2295,193
37.288,190
37.3465,204
37.405,200
37.4635,182
37.522,199
37.5805,194
37.639,185
37.6975,189
37.7559,178
37.8144,203
37.8729,193
37.9314,203
37.9899,192
38.0484,169
38.1069,168
38.1654,171
38.2239,168
38.2823,192
38.3408,158
38.3993,200
38.4578,203
38.5163,192
38.5748,188
38.6333,169
38.6918,169
38.7503,208
38.8088,144
38.8672,174
38.9257,189
38.9842,189
39.0427,179
39.1012,161
39.1597,166
39.2182,212
39.2767,185
39.3352,211
39.3936,253
39.4521,259
39.5106,323
39.5691,252
39.6276,229
39.6861,174
39.7446,154
39.8031,177
39.8616,160
39.9201,163
39.9785,188
40.037,169
40.0955,162
40.154,151
40.2125,185
40.271,225
40.3295,229
40.388,196
40.4465,219
40.5049,175
40.5634,167
40.6219,172
40.6804,179
40.7389,182
40.7974,187
40.8559,225
40.9144,246
40.9729,231
41.0314,199
41.0898,192
41.1483,205
41.2068,231
41.2653,184
41.3238,203
41.3823,192
41.4408,188
41.4993,172
41.5578,158
41.6162,169
41.6747,189
41.7332,199
41.7917,204
41.8502,185
41.9087,173
41.9672,214
42.0257,192
42.0842,212
42.1427,175
42.2011,177
42.2596,185
42.3181,196
42.3766,201
42.4351,372
42.4936,337
42.5521,267
42.6106,279
42.6691,186
42.7275,198
42.786,211
42.8445,175
42.903,151
42.9615,176
43.02,160
43.0785,176
43.137,180
43.1955,185
43.254,205
43.3124,197
43.3709,188
43.4294,180
43.4879,161
43.5464,212
43.6049,175
43.6634,188
43.7219,192
43.7804,176
43.8388,174
43.8973,187
43.9558,195
44.0143,187
44.0728,210
44.1313,167
44.1898,188
44.2483,261
44.3068,551
44.3653,212
44.4237,345
44.4822,174
44.5407,153
44.5992,173
44.6577,185
44.7162,175
44.7747,162
44.8332,163
44.8917,158
44.9501,179
45.0086,178
45.0671,167
45.1256,167
45.1841,161
45.2426,163
45.3011,154
45.3596,194
45.4181,180
45.4766,167
45.535,182
45.5935,171
45.652,195
45.7105,194
45.769,264
45.8275,259
45.886,198
45.9445,216
46.003,187
46.0614,168
46.1199,198
46.1784,167
46.2369,175
46.2954,177
46.3539,164
46.4124,115
46.4709,171
46.5294,161
46.5879,150
46.6463,143
46.7048,175
46.7633,179
46.8218,183
46.8803,172
46.9388,173
46.9973,179
47.0558,219
47.1143,251
47.1727,216
47.2312,217
47.2897,227
47.3482,200
47.4067,199
47.4652,185
47.5237,174
47.5822,205
47.6407,166
47.6991,169
47.7576,165
47.8161,171
47.8746,168
47.9331,161
47.9916,187
48.0501,199
48.1086,227
48.1671,238
48.2256,195
48.284,203
48.3425,155
48.401,179
48.4595,165
48.518,157
48.5765,158
48.635,156
48.6935,180
48.752,160
48.8104,196
48.8689,192
48.9274,197
48.9859,176
49.0444,155
49.1029,165
49.1614,147
49.2199,168
49.2784,150
49.3369,156
49.3953,169
49.4538,187
49.5123,176
49.5708,169
49.6293,183
49.6878,169
49.7463,161
49.8048,189
49.8633,188
49.9217,180
49.9802,176
50.0387,217
50.0972,261
50.1557,261
50.2142,208
50.2727,216
50.3312,199
50.3897,184
50.4482,203
50.5066,229
50.5651,235
50.6236,210
50.6821,221
50.7406,196
50.7991,228
50.8576,229
50.9161,206
50.9746,208
51.033,179
51.0915,192
51.15,160
51.2085,137
51.267,166
51.3255,128
51.384,154
51.4425,133
51.501,148
51.5595,155
51.6179,125
51.6764,126
51.7349,157
51.7934,160
51.8519,161
51.9104,158
51.9689,155
52.0274,143
52.0859,136
52.1443,153
52.2028,128
52.2613,171
52.3198,156
52.3783,140
52.4368,132
52.4953,148
52.5538,153
52.6123,126
52.6708,145
52.7292,151
52.7877,156
52.8462,154
52.9047,151
52.9632,141
53.0217,104
53.0802,171
53.1387,184
53.1972,141
53.2556,146
53.3141,129
53.3726,146
53.4311,158
53.4896,141
53.5481,145
53.6066,161
53.6651,147
53.7236,146
53.7821,145
53.8405,132
53.899,146
53.9575,142
54.016,169
54.0745,132
54.133,155
54.1915,125
54.25,142
54.3085,134
54.3669,169
54.4254,134
54.4839,147
54.5424,132
54.6009,130
54.6594,158
54.7179,137
54.7764,132
54.8349,167
54.8934,171
54.9518,156
55.0103,169
55.0688,158
55.1273,167
55.1858,157
55.2443,148
55.3028,186
55.3613,203
55.4198,167
55.4782,161
55.5367,132
55.5952,150
55.6537,142
55.7122,115
55.7707,134
55.8292,125
55.8877,143
55.9462,162
56.0047,160
56.0631,139
56.1216,148
56.1801,136
56.2386,115
56.2971,142
56.3556,142
56.4141,154
56.4726,150
56.5311,142
56.5895,145
56.648,130
56.7065,126
56.765,128
56.8235,147
56.882,141
56.9405,133
56.999,135
57.0575,122
57.1159,158
57.1744,145
57.2329,171
57.2914,161
57.3499,151
57.4084,156
57.4669,154
57.5254,152
57.5839,183
57.6424,147
57.7008,152
57.7593,145
57.8178,141
57.8763,145
57.9348,145
57.9933,146
58.0518,148
58.1103,130
58.1688,129
58.2272,125
58.2857,120
58.3442,139
58.4027,140
58.4612,140
58.5197,162
58.5782,148
58.6367,161
58.6952,167
58.7537,146
58.8121,154
58.8706,137
58.9291,144
58.9876,128
59.0461,143
59.1046,121
59.1631,132
59.2216,144
59.2801,132
59.3385,145
59.397,153
59.4555,156
59.514,173
59.5725,128
59.631,162
59.6895,135
59.748,142
59.8065,146
59.865,150
59.9234,354
59.9819,691
60.0404,263
60.0989,280
60.1574,364
60.2159,172
60.2744,137
60.3329,137
60.3914,142
60.4498,146
60.5083,169
60.5668,133
60.6253,152
60.6838,165
60.7423,148
60.8008,141
60.8593,140
60.9178,152
60.9763,150
61.0347,129
61.0932,140
61.1517,130
61.2102,125
61.2687,146
61.3272,134
61.3857,109
61.4442,124
61.5027,150
61.5611,128
61.6196,135
61.6781,141
61.7366,145
61.7951,124
61.8536,147
61.9121,123
61.9706,128
62.0291,124
62.0876,144
62.146,142
62.2045,123
62.263,123
62.3215,142
62.38,166
62.4385,129
62.497,182
62.5555,150
62.614,160
62.6724,167
62.7309,142
62.7894,137
62.8479,118
62.9064,145
62.9649,134
63.0234,116
63.0819,139
63.1404,140
63.1989,153
63.2573,128
63.3158,120
63.3743,152
63.4328,114
63.4913,151
63.5498,142
63.6083,118
63.6668,125
63.7253,144
63.7837,153
63.8422,137
63.9007,151
63.9592,139
64.0177,141
64.0762,135
64.1347,126
64.1932,147
64.2517,140
64.3102,121
64.3686,128
64.4271,115
64.4856,129
64.5441,142
64.6026,136
64.6611,116
64.7196,130
64.7781,121
64.8366,130
64.895,153
64.9535,103
65.012,146
65.0705,121
65.129,108
65.1875,130
65.246,111
65.3045,123
65.363,112
65.4215,131
65.4799,132
65.5384,112
65.5969,130
65.6554,131
65.7139,145
65.7724,130
65.8309,139
65.8894,136
65.9479,114
66.0063,128
66.0648,128
66.1233,113
66.1818,140
66.2403,123
66.2988,110
66.3573,122
66.4158,91
66.4743,128
66.5328,122
66.5912,130
66.6497,113
66.7082,109
66.7667,118
66.8252,104
66.8837,93
66.9422,101
67.0007,98
67.0592,123
67.1176,126
67.1761,113
67.2346,135
67.2931,126
67.3516,123
67.4101,141
67.4686,108
67.5271,148
67.5856,102
67.644,133
67.7025,165
67.761,239
67.8195,160
67.878,145
67.9365,145
67.995,143
68.0535,135
68.112,271
68.1705,371
68.2289,211
68.2874,365
68.3459,346
68.4044,201
68.4629,176
68.5214,169
68.5799,125
68.6384,131
68.6969,118
68.7553,125
68.8138,123
68.8723,101
68.9308,113
68.9893,116
69.0478,125
69.1063,114
69.1648,101
69.2233,129
69.2818,123
69.3402,120
69.3987,126
69.4572,109
69.5157,102
69.5742,124
69.6327,132
69.6912,111
69.7497,129
69.8082,122
69.8666,98
69.9251,121
69.9836,105
70.0421,115
70.1006,110
70.1591,102
70.2176,112
70.2761,100
70.3346,108
70.3931,104
70.4515,120
70.51,126
70.5685,102
70.627,108
70.6855,109
70.744,131
70.8025,124
70.861,107
70.9195,124
70.9779,100
71.0364,122
71.0949,114
71.1534,99
71.2119,111
71.2704,107
71.3289,131
71.3874,111
71.4459,121
71.5044,144
71.5628,164
71.6213,130
71.6798,136
71.7383,128
71.7968,139
71.8553,122
71.9138,115
71.9723,94
72.0308,111
72.0892,103
72.1477,131
72.2062,101
72.2647,103
72.3232,125
72.3817,123
72.4402,100
72.4987,111
72.5572,116
72.6157,104
72.6741,130
72.7326,114
72.7911,109
72.8496,111
72.9081,88
72.9666,110
73.0251,105
73.0836,119
73.1421,119
73.2005,112
73.259,107
73.3175,110
73.376,123
73.4345,121
73.493,114
73.5515,82
73.61,111
73.6685,136
73.727,105
73.7854,116
73.8439,107
73.9024,114
73.9609,114
74.0194,113
74.0779,121
74.1364,118
74.1949,108
74.2534,122
74.3118,112
74.3703,128
74.4288,105
74.4873,103
74.5458,102
74.6043,98
74.6628,115
74.7213,101
74.7798,114
74.8383,113
74.8967,121
74.9552,124
75.0137,132
75.0722,99
75.1307,128
75.1892,125
75.2477,139
75.3062,115
75.3647,123
75.4231,113
75.4816,109
75.5401,122
75.5986,122
75.6571,180
75.7156,150
75.7741,110
75.8326,133
75.8911,134
75.9496,118
76.008,97
76.0665,81
76.125,124
76.1835,111
76.242,102
76.3005,123
76.359,118
76.4175,103
76.476,116
76.5344,107
76.5929,77
76.6514,89
76.7099,102
76.7684,130
76.8269,96
76.8854,126
76.9439,98
77.0024,101
77.0608,98
77.1193,109
77.1778,98
77.2363,90
77.2948,115
77.3533,116
77.4118,99
77.4703,103
77.5288,116
77.5873,105
77.6457,121
77.7042,131
77.7627,89
77.8212,122
77.8797,111
77.9382,80
77.9967,116
78.0552,107
78.1137,104
78.1721,102
78.2306,105
78.2891,102
78.3476,103
78.4061,136
78.4646,103
78.5231,98
78.5816,100
78.6401,105
78.6986,111
78.757,108
78.8155,105
78.874,109
78.9325,105
78.991,114
79.0495,93
79.108,107
79.1665,116
79.225,105
79.2834,115
79.3419,104
79.4004,64
79.4589,99
79.5174,102
79.5759,96
79.6344,111
79.6929,116
79.7514,130
79.8099,100
79.8683,168
79.9268,123
79.9853,98
80.0438,120
80.1023,136
80.1608,125
80.2193,103
80.2778,102
80.3363,114
80.3947,101
80.4532,99
80.5117,113
80.5702,125
80.6287,98
80.6872,109
80.7457,102
80.8042,109
80.8627,98
80.9212,98
80.9796,97
81.0381,130
81.0966,125
81.1551,146
81.2136,139
81.2721,122
81.3306,122
81.3891,135
81.4476,168
81.506,162
81.5645,123
81.623,123
81.6815,145
81.74,133
81.7985,132
81.857,116
81.9155,102
81.974,108
82.0325,116
82.0909,91
82.1494,93
82.2079,96
82.2664,107
82.3249,90
82.3834,100
82.4419,93
82.5004,91
82.5589,100
82.6173,105
82.6758,109
82.7343,88
82.7928,103
82.8513,120
82.9098,86
82.9683,103
83.0268,100
83.0853,84
83.1438,98
83.2022,98
83.2607,119
83.3192,90
83.3777,110
83.4362,119
83.4947,115
83.5532,103
83.6117,119
83.6702,116
83.7286,121
83.7871,115
83.8456,124
83.9041,118
83.9626,121
84.0211,131
84.0796,98
84.1381,134
84.1966,102
84.2551,94
84.3135,86
84.372,105
84.4305,110
84.489,98
84.5475,102
84.606,99
84.6645,113
84.723,99
84.7815,102
84.8399,108
84.8984,91
84.9569,130
85.0154,111
85.0739,108
85.1324,102
85.1909,122
85.2494,110
85.3079,93
85.3664,96
85.4248,105
85.4833,104
85.5418,101
85.6003,92
85.6588,92
85.7173,108
85.7758,83
85.8343,99
85.8928,88
85.9512,94
86.0097,93
86.0682,78
86.1267,109
86.1852,108
86.2437,104
86.3022,99
86.3607,93
86.4192,101
86.4776,87
86.5361,130
86.5946,111
86.6531,94
86.7116,101
86.7701,91
86.8286,94
86.8871,100
86.9456,102
87.0041,70
87.0625,100
87.121,94
87.1795,80
87.238,94
87.2965,111
87.355,100
87.4135,89
87.472,105
87.5305,105
87.5889,91
87.6474,84
87.7059,90
87.7644,108
87.8229,109
87.8814,92
87.9399,88
87.9984,111
88.0569,108
88.1154,96
88.1738,109
88.2323,96
88.2908,97
88.3493,96
88.4078,109
88.4663,124
88.5248,83
88.5833,105
88.6418,101
88.7002,96
88.7587,111
88.8172,90
88.8757,114
88.9342,110
88.9927,103
89.0512,98
89.1097,102
89.1682,87
89.2267,75
89.2851,98
89.3436,109
89.4021,111
89.4606,92
89.5191,119
89.5776,129
89.6361,126
89.6946,124
89.7531,107
89.8115,122
89.87,93
89.9285,107
89.987,99
89.9954,129