File: XRD_csv/OPC-3D 2.csv
Angle,Intensity
5.99618,720
6.05467,766
6.11316,740
6.17165,755
6.23014,757
6.28863,734
6.34711,665
6.4056,678
6.46409,632
6.52258,683
6.58107,591
6.63956,696
6.69805,652
6.75654,631
6.81503,631
6.87352,580
6.93201,560
6.9905,517
7.04899,557
7.10748,503
7.16597,509
7.22446,480
7.28295,527
7.34143,509
7.39992,521
7.45841,440
7.5169,491
7.57539,551
7.63388,495
7.69237,500
7.75086,504
7.80935,492
7.86784,474
7.92633,505
7.98482,495
8.04331,460
8.1018,435
8.16029,448
8.21878,450
8.27727,475
8.33576,463
8.39424,446
8.45273,475
8.51122,443
8.56971,449
8.6282,457
8.68669,446
8.74518,392
8.80367,433
8.86216,467
8.92065,420
8.97914,453
9.03763,409
9.09612,435
9.15461,439
9.2131,451
9.27159,463
9.33008,429
9.38857,414
9.44705,428
9.50554,403
9.56403,411
9.62252,430
9.68101,416
9.7395,388
9.79799,386
9.85648,396
9.91497,409
9.97346,364
10.0319,414
10.0904,397
10.1489,425
10.2074,348
10.2659,359
10.3244,374
10.3829,379
10.4414,384
10.4999,385
10.5584,337
10.6168,328
10.6753,371
10.7338,331
10.7923,346
10.8508,372
10.9093,350
10.9678,374
11.0263,314
11.0848,356
11.1432,334
11.2017,350
11.2602,326
11.3187,308
11.3772,310
11.4357,347
11.4942,340
11.5527,323
11.6112,299
11.6697,343
11.7281,316
11.7866,339
11.8451,348
11.9036,294
11.9621,307
12.0206,304
12.0791,297
12.1376,334
12.1961,333
12.2545,315
12.313,296
12.3715,337
12.43,289
12.4885,313
12.547,289
12.6055,276
12.664,268
12.7225,268
12.781,326
12.8394,288
12.8979,271
12.9564,281
13.0149,282
13.0734,263
13.1319,282
13.1904,240
13.2489,278
13.3074,301
13.3658,281
13.4243,290
13.4828,267
13.5413,263
13.5998,274
13.6583,267
13.7168,357
13.7753,281
13.8338,321
13.8923,265
13.9507,265
14.0092,275
14.0677,250
14.1262,263
14.1847,232
14.2432,270
14.3017,268
14.3602,250
14.4187,268
14.4771,230
14.5356,231
14.5941,237
14.6526,263
14.7111,243
14.7696,248
14.8281,225
14.8866,224
14.9451,257
15.0036,248
15.062,227
15.1205,232
15.179,260
15.2375,215
15.296,231
15.3545,259
15.413,242
15.4715,218
15.53,218
15.5884,221
15.6469,216
15.7054,220
15.7639,230
15.8224,228
15.8809,260
15.9394,242
15.9979,221
16.0564,227
16.1149,224
16.1733,188
16.2318,263
16.2903,218
16.3488,216
16.4073,238
16.4658,211
16.5243,204
16.5828,208
16.6413,231
16.6997,198
16.7582,248
16.8167,210
16.8752,194
16.9337,185
16.9922,214
17.0507,221
17.1092,193
17.1677,187
17.2262,189
17.2846,194
17.3431,184
17.4016,210
17.4601,209
17.5186,227
17.5771,190
17.6356,185
17.6941,206
17.7526,199
17.811,220
17.8695,230
17.928,247
17.9865,290
18.045,322
18.1035,423
18.162,403
18.2205,224
18.279,216
18.3375,196
18.3959,210
18.4544,184
18.5129,176
18.5714,204
18.6299,171
18.6884,235
18.7469,199
18.8054,172
18.8639,200
18.9223,179
18.9808,177
19.0393,172
19.0978,201
19.1563,169
19.2148,175
19.2733,190
19.3318,182
19.3903,194
19.4487,157
19.5072,198
19.5657,186
19.6242,188
19.6827,182
19.7412,161
19.7997,174
19.8582,178
19.9167,160
19.9752,183
20.0336,166
20.0921,205
20.1506,182
20.2091,166
20.2676,189
20.3261,160
20.3846,183
20.4431,201
20.5016,169
20.56,186
20.6185,144
20.677,154
20.7355,172
20.794,186
20.8525,194
20.911,176
20.9695,173
21.028,183
21.0865,175
21.1449,164
21.2034,145
21.2619,155
21.3204,165
21.3789,164
21.4374,163
21.4959,134
21.5544,154
21.6129,166
21.6713,158
21.7298,168
21.7883,151
21.8468,163
21.9053,153
21.9638,152
22.0223,155
22.0808,166
22.1393,177
22.1978,135
22.2562,165
22.3147,154
22.3732,132
22.4317,150
22.4902,145
22.5487,173
22.6072,152
22.6657,132
22.7242,162
22.7826,152
22.8411,167
22.8996,175
22.9581,194
23.0166,190
23.0751,162
23.1336,218
23.1921,189
23.2506,179
23.3091,227
23.3675,182
23.426,141
23.4845,174
23.543,180
23.6015,194
23.66,151
23.7185,163
23.777,142
23.8355,137
23.8939,167
23.9524,141
24.0109,169
24.0694,158
24.1279,215
24.1864,175
24.2449,137
24.3034,164
24.3619,167
24.4204,160
24.4788,163
24.5373,153
24.5958,141
24.6543,155
24.7128,145
24.7713,114
24.8298,131
24.8883,146
24.9468,133
25.0052,160
25.0637,118
25.1222,144
25.1807,164
25.2392,154
25.2977,156
25.3562,168
25.4147,180
25.4732,220
25.5317,229
25.5901,184
25.6486,163
25.7071,147
25.7656,162
25.8241,141
25.8826,163
25.9411,167
25.9996,179
26.0581,163
26.1165,158
26.175,176
26.2335,144
26.292,174
26.3505,146
26.409,207
26.4675,262
26.526,372
26.5845,583
26.643,1425
26.7014,3824
26.7599,8481
26.8184,5651
26.8769,396
26.9354,242
26.9939,197
27.0524,208
27.1109,189
27.1694,165
27.2278,173
27.2863,140
27.3448,175
27.4033,164
27.4618,151
27.5203,180
27.5788,182
27.6373,162
27.6958,166
27.7543,158
27.8127,163
27.8712,152
27.9297,218
27.9882,235
28.0467,221
28.1052,198
28.1637,192
28.2222,148
28.2807,134
28.3391,148
28.3976,124
28.4561,152
28.5146,148
28.5731,172
28.6316,171
28.6901,184
28.7486,220
28.8071,193
28.8655,163
28.924,152
28.9825,152
29.041,164
29.0995,156
29.158,188
29.2165,163
29.275,176
29.3335,207
29.392,263
29.4504,242
29.5089,258
29.5674,228
29.6259,171
29.6844,166
29.7429,173
29.8014,153
29.8599,144
29.9184,165
29.9768,148
30.0353,136
30.0938,151
30.1523,167
30.2108,151
30.2693,166
30.3278,167
30.3863,158
30.4448,152
30.5033,147
30.5617,148
30.6202,155
30.6787,139
30.7372,124
30.7957,158
30.8542,151
30.91268,147
30.9712,121
31.0297,140
31.0881,140
31.1466,130
31.2051,120
31.2636,132
31.3221,111
31.3806,102
31.4391,136
31.4976,135
31.5561,123
31.6146,108
31.673,125
31.7315,143
31.79,129
31.8485,126
31.907,131
31.9655,171
32.024,166
32.0825,182
32.141,178
32.1994,206
32.2579,199
32.3164,176
32.3749,158
32.4334,156
32.4919,229
32.5504,229
32.6089,190
32.6674,164
32.7259,150
32.7843,140
32.8428,128
32.9013,128
32.9598,131
33.0183,187
33.0768,154
33.1353,172
33.1938,128
33.2523,107
33.3107,114
33.3692,116
33.4277,120
33.4862,125
33.5447,148
33.6032,139
33.6617,146
33.7202,158
33.7787,148
33.8372,162
33.8956,165
33.9541,167
34.0126,206
34.0711,289
34.1296,378
34.1881,395
34.2466,283
34.3051,230
34.3636,157
34.422,132
34.4805,131
34.539,116
34.5975,122
34.656,123
34.7145,119
34.773,113
34.8315,136
34.89,137
34.9485,263
35.0069,317
35.0654,307
35.1239,198
35.1824,193
35.2409,254
35.2994,616
35.3579,1068
35.4164,1362
35.4749,822
35.5333,401
35.5918,156
35.6503,165
35.7088,148
35.7673,147
35.8258,174
35.8843,141
35.9428,137
36.0013,151
36.0598,131
36.1182,119
36.1767,121
36.2352,93
36.2937,102
36.3522,90
36.4107,92
36.4692,98
36.5277,113
36.5862,100
36.6446,116
36.7031,120
36.7616,121
36.8201,113
36.8786,104
36.9371,97
36.9956,102
37.0541,109
37.1126,112
37.1711,121
37.2295,113
37.288,98
37.3465,115
37.405,121
37.4635,104
37.522,115
37.5805,93
37.639,97
37.6975,105
37.7559,110
37.8144,98
37.8729,91
37.9314,97
37.9899,115
38.0484,101
38.1069,92
38.1654,77
38.2239,93
38.2823,92
38.3408,122
38.3993,110
38.4578,115
38.5163,94
38.5748,91
38.6333,101
38.6918,84
38.7503,82
38.8088,99
38.8672,97
38.9257,89
38.9842,99
39.0427,102
39.1012,99
39.1597,103
39.2182,107
39.2767,96
39.3352,111
39.3936,122
39.4521,96
39.5106,152
39.5691,128
39.6276,101
39.6861,89
39.7446,83
39.8031,102
39.8616,78
39.9201,82
39.9785,90
40.037,97
40.0955,87
40.154,88
40.2125,94
40.271,90
40.3295,94
40.388,90
40.4465,92
40.5049,86
40.5634,83
40.6219,94
40.6804,104
40.7389,99
40.7974,96
40.8559,86
40.9144,121
40.9729,107
41.0314,91
41.0898,96
41.1483,93
41.2068,115
41.2653,131
41.3238,91
41.3823,91
41.4408,101
41.4993,81
41.5578,94
41.6162,92
41.6747,96
41.7332,98
41.7917,84
41.8502,87
41.9087,101
41.9672,82
42.0257,96
42.0842,93
42.1427,88
42.2011,90
42.2596,76
42.3181,94
42.3766,98
42.4351,98
42.4936,109
42.5521,97
42.6106,124
42.6691,100
42.7275,116
42.786,116
42.8445,98
42.903,89
42.9615,101
43.02,99
43.0785,81
43.137,105
43.1955,89
43.254,73
43.3124,76
43.3709,97
43.4294,98
43.4879,75
43.5464,87
43.6049,93
43.6634,100
43.7219,83
43.7804,79
43.8388,103
43.8973,94
43.9558,67
44.0143,75
44.0728,83
44.1313,98
44.1898,109
44.2483,88
44.3068,84
44.3653,87
44.4237,87
44.4822,88
44.5407,92
44.5992,69
44.6577,80
44.7162,83
44.7747,93
44.8332,82
44.8917,81
44.9501,75
45.0086,88
45.0671,71
45.1256,103
45.1841,67
45.2426,73
45.3011,61
45.3596,87
45.4181,91
45.4766,94
45.535,87
45.5935,91
45.652,113
45.7105,94
45.769,111
45.8275,107
45.886,96
45.9445,92
46.003,79
46.0614,99
46.1199,71
46.1784,78
46.2369,72
46.2954,82
46.3539,90
46.4124,61
46.4709,87
46.5294,83
46.5879,65
46.6463,78
46.7048,81
46.7633,76
46.8218,80
46.8803,103
46.9388,103
46.9973,103
47.0558,151
47.1143,208
47.1727,217
47.2312,195
47.2897,166
47.3482,119
47.4067,146
47.4652,135
47.5237,122
47.5822,99
47.6407,119
47.6991,99
47.7576,96
47.8161,91
47.8746,71
47.9331,82
47.9916,78
48.0501,73
48.1086,88
48.1671,70
48.2256,82
48.284,72
48.3425,76
48.401,82
48.4595,93
48.518,99
48.5765,118
48.635,104
48.6935,108
48.752,88
48.8104,84
48.8689,88
48.9274,102
48.9859,71
49.0444,87
49.1029,103
49.1614,80
49.2199,67
49.2784,78
49.3369,96
49.3953,79
49.4538,77
49.5123,70
49.5708,101
49.6293,88
49.6878,92
49.7463,82
49.8048,90
49.8633,112
49.9217,109
49.9802,126
50.0387,115
50.0972,116
50.1557,121
50.2142,114
50.2727,89
50.3312,91
50.3897,82
50.4482,81
50.5066,101
50.5651,112
50.6236,116
50.6821,128
50.7406,130
50.7991,140
50.8576,139
50.9161,172
50.9746,199
51.033,129
51.0915,105
51.15,102
51.2085,91
51.267,77
51.3255,83
51.384,78
51.4425,76
51.501,83
51.5595,75
51.6179,91
51.6764,97
51.7349,108
51.7934,99
51.8519,103
51.9104,105
51.9689,81
52.0274,68
52.0859,75
52.1443,57
52.2028,79
52.2613,89
52.3198,79
52.3783,57
52.4368,77
52.4953,69
52.5538,71
52.6123,62
52.6708,76
52.7292,84
52.7877,93
52.8462,83
52.9047,80
52.9632,88
53.0217,86
53.0802,91
53.1387,75
53.1972,75
53.2556,86
53.3141,64
53.3726,62
53.4311,64
53.4896,84
53.5481,86
53.6066,68
53.6651,70
53.7236,84
53.7821,84
53.8405,73
53.899,80
53.9575,76
54.016,72
54.0745,77
54.133,70
54.1915,91
54.25,82
54.3085,91
54.3669,133
54.4254,112
54.4839,107
54.5424,91
54.6009,66
54.6594,108
54.7179,90
54.7764,79
54.8349,96
54.8934,84
54.9518,100
55.0103,75
55.0688,91
55.1273,84
55.1858,84
55.2443,73
55.3028,87
55.3613,101
55.4198,121
55.4782,92
55.5367,115
55.5952,93
55.6537,68
55.7122,91
55.7707,73
55.8292,75
55.8877,77
55.9462,58
56.0047,75
56.0631,78
56.1216,66
56.1801,58
56.2386,73
56.2971,67
56.3556,77
56.4141,84
56.4726,76
56.5311,79
56.5895,79
56.648,75
56.7065,83
56.765,80
56.8235,86
56.882,78
56.9405,64
56.999,75
57.0575,68
57.1159,77
57.1744,103
57.2329,75
57.2914,81
57.3499,76
57.4084,67
57.4669,72
57.5254,83
57.5839,70
57.6424,65
57.7008,88
57.7593,66
57.8178,69
57.8763,57
57.9348,79
57.9933,75
58.0518,55
58.1103,75
58.1688,71
58.2272,80
58.2857,79
58.3442,86
58.4027,72
58.4612,73
58.5197,59
58.5782,71
58.6367,71
58.6952,70
58.7537,81
58.8121,73
58.8706,77
58.9291,64
58.9876,89
59.0461,97
59.1046,87
59.1631,71
59.2216,81
59.2801,82
59.3385,75
59.397,80
59.4555,76
59.514,92
59.5725,87
59.631,97
59.6895,93
59.748,104
59.8065,115
59.865,198
59.9234,340
59.9819,833
60.0404,1370
60.0989,500
60.1574,553
60.2159,563
60.2744,183
60.3329,96
60.3914,87
60.4498,82
60.5083,79
60.5668,103
60.6253,73
60.6838,94
60.7423,90
60.8008,81
60.8593,100
60.9178,83
60.9763,80
61.0347,88
61.0932,57
61.1517,76
61.2102,84
61.2687,79
61.3272,90
61.3857,100
61.4442,80
61.5027,75
61.5611,70
61.6196,77
61.6781,72
61.7366,66
61.7951,68
61.8536,73
61.9121,75
61.9706,65
62.0291,80
62.0876,66
62.146,89
62.2045,73
62.263,72
62.3215,61
62.38,82
62.4385,78
62.497,82
62.5555,88
62.614,103
62.6724,99
62.7309,75
62.7894,99
62.8479,71
62.9064,84
62.9649,89
63.0234,80
63.0819,115
63.1404,207
63.1989,175
63.2573,233
63.3158,214
63.3743,151
63.4328,178
63.4913,115
63.5498,93
63.6083,80
63.6668,77
63.7253,67
63.7837,72
63.8422,79
63.9007,79
63.9592,77
64.0177,161
64.0762,135
64.1347,90
64.1932,135
64.2517,108
64.3102,100
64.3686,87
64.4271,80
64.4856,78
64.5441,84
64.6026,68
64.6611,89
64.7196,62
64.7781,73
64.8366,68
64.895,79
64.9535,84
65.012,67
65.0705,70
65.129,81
65.1875,86
65.246,91
65.3045,80
65.363,90
65.4215,79
65.4799,67
65.5384,67
65.5969,71
65.6554,78
65.7139,70
65.7724,77
65.8309,55
65.8894,69
65.9479,68
66.0063,72
66.0648,68
66.1233,69
66.1818,68
66.2403,62
66.2988,56
66.3573,49
66.4158,65
66.4743,68
66.5328,88
66.5912,67
66.6497,68
66.7082,77
66.7667,73
66.8252,64
66.8837,65
66.9422,71
67.0007,59
67.0592,68
67.1176,59
67.1761,68
67.2346,87
67.2931,78
67.3516,72
67.4101,77
67.4686,81
67.5271,68
67.5856,61
67.644,73
67.7025,98
67.761,105
67.8195,98
67.878,77
67.9365,96
67.995,107
68.0535,84
68.112,84
68.1705,98
68.2289,77
68.2874,88
68.3459,88
68.4044,76
68.4629,71
68.5214,64
68.5799,78
68.6384,68
68.6969,60
68.7553,73
68.8138,75
68.8723,67
68.9308,71
68.9893,75
69.0478,71
69.1063,65
69.1648,66
69.2233,59
69.2818,73
69.3402,69
69.3987,70
69.4572,87
69.5157,65
69.5742,66
69.6327,61
69.6912,54
69.7497,67
69.8082,65
69.8666,48
69.9251,67
69.9836,67
70.0421,62
70.1006,60
70.1591,61
70.2176,66
70.2761,64
70.3346,66
70.3931,66
70.4515,55
70.51,81
70.5685,94
70.627,90
70.6855,92
70.744,107
70.8025,137
70.861,139
70.9195,188
70.9779,167
71.0364,146
71.0949,176
71.1534,155
71.2119,133
71.2704,89
71.3289,103
71.3874,82
71.4459,52
71.5044,83
71.5628,61
71.6213,80
71.6798,75
71.7383,83
71.7968,87
71.8553,86
71.9138,71
71.9723,103
72.0308,80
72.0892,73
72.1477,57
72.2062,73
72.2647,62
72.3232,82
72.3817,82
72.4402,72
72.4987,73
72.5572,55
72.6157,78
72.6741,59
72.7326,83
72.7911,96
72.8496,82
72.9081,111
72.9666,121
73.0251,133
73.0836,168
73.1421,271
73.2005,386
73.259,673
73.3175,712
73.376,587
73.4345,489
73.493,472
73.5515,379
73.61,294
73.6685,306
73.727,315
73.7854,322
73.8439,349
73.9024,338
73.9609,316
74.0194,229
74.0779,215
74.1364,167
74.1949,143
74.2534,108
74.3118,81
74.3703,90
74.4288,79
74.4873,70
74.5458,75
74.6043,77
74.6628,54
74.7213,75
74.7798,73
74.8383,73
74.8967,51
74.9552,72
75.0137,60
75.0722,61
75.1307,68
75.1892,57
75.2477,83
75.3062,66
75.3647,76
75.4231,96
75.4816,64
75.5401,73
75.5986,54
75.6571,59
75.7156,50
75.7741,46
75.8326,72
75.8911,64
75.9496,76
76.008,80
76.0665,60
76.125,61
76.1835,59
76.242,66
76.3005,70
76.359,79
76.4175,69
76.476,51
76.5344,54
76.5929,77
76.6514,51
76.7099,66
76.7684,65
76.8269,49
76.8854,78
76.9439,55
77.0024,45
77.0608,50
77.1193,49
77.1778,64
77.2363,79
77.2948,69
77.3533,68
77.4118,56
77.4703,58
77.5288,55
77.5873,60
77.6457,71
77.7042,66
77.7627,67
77.8212,75
77.8797,67
77.9382,67
77.9967,56
78.0552,47
78.1137,58
78.1721,76
78.2306,82
78.2891,66
78.3476,72
78.4061,67
78.4646,80
78.5231,70
78.5816,55
78.6401,75
78.6986,52
78.757,56
78.8155,69
78.874,80
78.9325,77
78.991,61
79.0495,76
79.108,58
79.1665,75
79.225,79
79.2834,68
79.3419,67
79.4004,61
79.4589,60
79.5174,58
79.5759,84
79.6344,57
79.6929,58
79.7514,69
79.8099,109
79.8683,187
79.9268,161
79.9853,82
80.0438,80
80.1023,102
80.1608,120
80.2193,78
80.2778,62
80.3363,78
80.3947,55
80.4532,58
80.5117,60
80.5702,44
80.6287,62
80.6872,89
80.7457,60
80.8042,71
80.8627,67
80.9212,49
80.9796,62
81.0381,57
81.0966,73
81.1551,83
81.2136,76
81.2721,68
81.3306,62
81.3891,81
81.4476,73
81.506,86
81.5645,72
81.623,80
81.6815,86
81.74,68
81.7985,97
81.857,90
81.9155,68
81.974,86
82.0325,64
82.0909,79
82.1494,78
82.2079,93
82.2664,111
82.3249,93
82.3834,97
82.4419,92
82.5004,82
82.5589,113
82.6173,88
82.6758,88
82.7343,75
82.7928,84
82.8513,79
82.9098,59
82.9683,64
83.0268,68
83.0853,80
83.1438,54
83.2022,66
83.2607,77
83.3192,73
83.3777,77
83.4362,81
83.4947,81
83.5532,93
83.6117,105
83.6702,125
83.7286,123
83.7871,132
83.8456,226
83.9041,290
83.9626,182
84.0211,116
84.0796,121
84.1381,161
84.1966,142
84.2551,61
84.3135,73
84.372,70
84.4305,73
84.489,76
84.5475,72
84.606,68
84.6645,75
84.723,76
84.7815,68
84.8399,82
84.8984,70
84.9569,70
85.0154,77
85.0739,78
85.1324,76
85.1909,77
85.2494,69
85.3079,69
85.3664,64
85.4248,66
85.4833,81
85.5418,47
85.6003,65
85.6588,62
85.7173,66
85.7758,58
85.8343,65
85.8928,73
85.9512,76
86.0097,76
86.0682,72
86.1267,69
86.1852,76
86.2437,69
86.3022,66
86.3607,50
86.4192,75
86.4776,70
86.5361,64
86.5946,62
86.6531,59
86.7116,54
86.7701,44
86.8286,60
86.8871,50
86.9456,62
87.0041,64
87.0625,73
87.121,60
87.1795,66
87.238,48
87.2965,49
87.355,65
87.4135,72
87.472,57
87.5305,52
87.5889,67
87.6474,73
87.7059,70
87.7644,70
87.8229,60
87.8814,67
87.9399,57
87.9984,64
88.0569,78
88.1154,67
88.1738,44
88.2323,71
88.2908,61
88.3493,61
88.4078,62
88.4663,58
88.5248,77
88.5833,75
88.6418,61
88.7002,72
88.7587,59
88.8172,50
88.8757,58
88.9342,48
88.9927,60
89.0512,58
89.1097,66
89.1682,73
89.2267,67
89.2851,60
89.3436,60
89.4021,67
89.4606,71
89.5191,64
89.5776,55
89.6361,65
89.6946,77
89.7531,55
89.8115,73
89.87,64
89.9285,87
89.987,76
89.9954,61