File: XRD_csv/OPCM- 21 D 1.csv
Angle,Intensity
5.99618,797
6.05467,790
6.11316,804
6.17165,798
6.23014,772
6.28863,638
6.34711,707
6.4056,693
6.46409,680
6.52258,686
6.58107,641
6.63956,677
6.69805,655
6.75654,651
6.81503,600
6.87352,615
6.93201,592
6.9905,577
7.04899,595
7.10748,528
7.16597,553
7.22446,529
7.28295,531
7.34143,529
7.39992,516
7.45841,489
7.5169,502
7.57539,497
7.63388,518
7.69237,525
7.75086,502
7.80935,506
7.86784,461
7.92633,485
7.98482,530
8.04331,492
8.1018,475
8.16029,486
8.21878,461
8.27727,485
8.33576,484
8.39424,461
8.45273,474
8.51122,487
8.56971,503
8.6282,491
8.68669,428
8.74518,448
8.80367,475
8.86216,499
8.92065,459
8.97914,494
9.03763,459
9.09612,433
9.15461,484
9.2131,467
9.27159,428
9.33008,411
9.38857,428
9.44705,378
9.50554,402
9.56403,432
9.62252,420
9.68101,436
9.7395,423
9.79799,422
9.85648,391
9.91497,407
9.97346,406
10.0319,400
10.0904,361
10.1489,378
10.2074,381
10.2659,410
10.3244,386
10.3829,349
10.4414,380
10.4999,388
10.5584,331
10.6168,378
10.6753,379
10.7338,326
10.7923,390
10.8508,366
10.9093,338
10.9678,377
11.0263,325
11.0848,389
11.1432,317
11.2017,363
11.2602,353
11.3187,334
11.3772,359
11.4357,326
11.4942,343
11.5527,349
11.6112,322
11.6697,360
11.7281,344
11.7866,333
11.8451,328
11.9036,317
11.9621,344
12.0206,321
12.0791,331
12.1376,346
12.1961,368
12.2545,299
12.313,307
12.3715,323
12.43,294
12.4885,344
12.547,332
12.6055,320
12.664,302
12.7225,290
12.781,262
12.8394,312
12.8979,259
12.9564,307
13.0149,325
13.0734,310
13.1319,281
13.1904,289
13.2489,292
13.3074,283
13.3658,283
13.4243,290
13.4828,291
13.5413,364
13.5998,384
13.6583,465
13.7168,370
13.7753,279
13.8338,290
13.8923,316
13.9507,347
14.0092,293
14.0677,247
14.1262,313
14.1847,279
14.2432,262
14.3017,296
14.3602,265
14.4187,240
14.4771,314
14.5356,275
14.5941,268
14.6526,275
14.7111,265
14.7696,283
14.8281,250
14.8866,272
14.9451,293
15.0036,276
15.062,257
15.1205,244
15.179,253
15.2375,261
15.296,256
15.3545,270
15.413,292
15.4715,239
15.53,210
15.5884,260
15.6469,259
15.7054,281
15.7639,274
15.8224,248
15.8809,279
15.9394,240
15.9979,243
16.0564,274
16.1149,243
16.1733,252
16.2318,286
16.2903,242
16.3488,197
16.4073,232
16.4658,274
16.5243,243
16.5828,241
16.6413,233
16.6997,237
16.7582,218
16.8167,227
16.8752,219
16.9337,243
16.9922,247
17.0507,231
17.1092,219
17.1677,228
17.2262,225
17.2846,218
17.3431,212
17.4016,235
17.4601,233
17.5186,219
17.5771,247
17.6356,238
17.6941,262
17.7526,222
17.811,243
17.8695,259
17.928,276
17.9865,310
18.045,376
18.1035,497
18.162,433
18.2205,296
18.279,253
18.3375,247
18.3959,209
18.4544,207
18.5129,203
18.5714,203
18.6299,210
18.6884,200
18.7469,237
18.8054,212
18.8639,211
18.9223,230
18.9808,197
19.0393,205
19.0978,205
19.1563,226
19.2148,210
19.2733,198
19.3318,174
19.3903,206
19.4487,195
19.5072,196
19.5657,199
19.6242,218
19.6827,216
19.7412,215
19.7997,205
19.8582,216
19.9167,203
19.9752,192
20.0336,195
20.0921,186
20.1506,197
20.2091,198
20.2676,195
20.3261,210
20.3846,188
20.4431,222
20.5016,193
20.56,212
20.6185,228
20.677,220
20.7355,264
20.794,393
20.8525,303
20.911,674
20.9695,721
21.028,271
21.0865,246
21.1449,216
21.2034,210
21.2619,225
21.3204,203
21.3789,184
21.4374,183
21.4959,173
21.5544,175
21.6129,179
21.6713,186
21.7298,165
21.7883,212
21.8468,185
21.9053,195
21.9638,190
22.0223,210
22.0808,199
22.1393,230
22.1978,187
22.2562,178
22.3147,160
22.3732,164
22.4317,177
22.4902,172
22.5487,165
22.6072,173
22.6657,218
22.7242,195
22.7826,189
22.8411,173
22.8996,182
22.9581,214
23.0166,212
23.0751,221
23.1336,218
23.1921,199
23.2506,171
23.3091,201
23.3675,179
23.426,166
23.4845,188
23.543,193
23.6015,307
23.66,231
23.7185,195
23.777,195
23.8355,167
23.8939,180
23.9524,163
24.0109,178
24.0694,176
24.1279,220
24.1864,224
24.2449,173
24.3034,174
24.3619,188
24.4204,176
24.4788,162
24.5373,168
24.5958,184
24.6543,229
24.7128,254
24.7713,248
24.8298,188
24.8883,168
24.9468,167
25.0052,186
25.0637,161
25.1222,172
25.1807,169
25.2392,155
25.2977,162
25.3562,182
25.4147,180
25.4732,178
25.5317,470
25.5901,494
25.6486,355
25.7071,244
25.7656,179
25.8241,182
25.8826,162
25.9411,167
25.9996,177
26.0581,163
26.1165,165
26.175,192
26.2335,176
26.292,203
26.3505,204
26.409,258
26.4675,283
26.526,284
26.5845,313
26.643,709
26.7014,2319
26.7599,4112
26.8184,2807
26.8769,347
26.9354,301
26.9939,244
27.0524,222
27.1109,222
27.1694,205
27.2278,212
27.2863,267
27.3448,381
27.4033,658
27.4618,2063
27.5203,1478
27.5788,592
27.6373,288
27.6958,205
27.7543,220
27.8127,303
27.8712,409
27.9297,436
27.9882,297
28.0467,271
28.1052,217
28.1637,174
28.2222,177
28.2807,189
28.3391,172
28.3976,197
28.4561,168
28.5146,180
28.5731,185
28.6316,172
28.6901,270
28.7486,292
28.8071,241
28.8655,184
28.924,185
28.9825,193
29.041,194
29.0995,186
29.158,220
29.2165,243
29.275,379
29.3335,387
29.392,357
29.4504,390
29.5089,366
29.5674,324
29.6259,272
29.6844,218
29.7429,187
29.8014,226
29.8599,273
29.9184,251
29.9768,225
30.0353,268
30.0938,268
30.1523,258
30.2108,236
30.2693,180
30.3278,201
30.3863,194
30.4448,180
30.5033,168
30.5617,156
30.6202,177
30.6787,162
30.7372,163
30.7957,166
30.8542,156
30.91268,200
30.9712,196
31.0297,142
31.0881,214
31.1466,185
31.2051,173
31.2636,156
31.3221,156
31.3806,185
31.4391,167
31.4976,162
31.5561,176
31.6146,148
31.673,154
31.7315,134
31.79,179
31.8485,153
31.907,166
31.9655,162
32.024,222
32.0825,260
32.141,274
32.1994,294
32.2579,256
32.3164,240
32.3749,190
32.4334,185
32.4919,221
32.5504,217
32.6089,279
32.6674,210
32.7259,201
32.7843,174
32.8428,158
32.9013,152
32.9598,188
33.0183,143
33.0768,135
33.1353,179
33.1938,143
33.2523,120
33.3107,173
33.3692,153
33.4277,182
33.4862,169
33.5447,166
33.6032,154
33.6617,166
33.7202,144
33.7787,178
33.8372,193
33.8956,252
33.9541,198
34.0126,235
34.0711,377
34.1296,488
34.1881,446
34.2466,495
34.3051,340
34.3636,292
34.422,189
34.4805,147
34.539,157
34.5975,160
34.656,137
34.7145,161
34.773,144
34.8315,141
34.89,133
34.9485,132
35.0069,189
35.0654,165
35.1239,154
35.1824,182
35.2409,155
35.2994,125
35.3579,145
35.4164,137
35.4749,135
35.5333,125
35.5918,119
35.6503,137
35.7088,133
35.7673,124
35.8258,116
35.8843,158
35.9428,140
36.0013,130
36.0598,163
36.1182,131
36.1767,155
36.2352,128
36.2937,128
36.3522,139
36.4107,152
36.4692,153
36.5277,160
36.5862,135
36.6446,140
36.7031,147
36.7616,126
36.8201,125
36.8786,112
36.9371,120
36.9956,137
37.0541,135
37.1126,122
37.1711,147
37.2295,137
37.288,133
37.3465,130
37.405,128
37.4635,110
37.522,111
37.5805,136
37.639,125
37.6975,113
37.7559,114
37.8144,122
37.8729,105
37.9314,131
37.9899,111
38.0484,119
38.1069,130
38.1654,105
38.2239,132
38.2823,112
38.3408,131
38.3993,114
38.4578,114
38.5163,110
38.5748,115
38.6333,101
38.6918,122
38.7503,107
38.8088,107
38.8672,102
38.9257,120
38.9842,113
39.0427,105
39.1012,125
39.1597,101
39.2182,148
39.2767,173
39.3352,182
39.3936,275
39.4521,894
39.5106,971
39.5691,658
39.6276,436
39.6861,273
39.7446,154
39.8031,167
39.8616,137
39.9201,126
39.9785,116
40.037,121
40.0955,121
40.154,108
40.2125,134
40.271,126
40.3295,134
40.388,130
40.4465,89
40.5049,119
40.5634,108
40.6219,103
40.6804,137
40.7389,115
40.7974,129
40.8559,119
40.9144,115
40.9729,133
41.0314,129
41.0898,113
41.1483,130
41.2068,140
41.2653,151
41.3238,147
41.3823,122
41.4408,113
41.4993,123
41.5578,124
41.6162,135
41.6747,207
41.7332,167
41.7917,195
41.8502,145
41.9087,129
41.9672,116
42.0257,129
42.0842,124
42.1427,124
42.2011,121
42.2596,103
42.3181,133
42.3766,153
42.4351,209
42.4936,492
42.5521,276
42.6106,332
42.6691,192
42.7275,141
42.786,86
42.8445,111
42.903,130
42.9615,120
43.02,104
43.0785,113
43.137,102
43.1955,134
43.254,146
43.3124,119
43.3709,145
43.4294,120
43.4879,113
43.5464,124
43.6049,121
43.6634,114
43.7219,113
43.7804,111
43.8388,108
43.8973,109
43.9558,107
44.0143,108
44.0728,126
44.1313,124
44.1898,113
44.2483,113
44.3068,109
44.3653,101
44.4237,98
44.4822,105
44.5407,102
44.5992,125
44.6577,120
44.7162,87
44.7747,121
44.8332,99
44.8917,105
44.9501,113
45.0086,102
45.0671,124
45.1256,99
45.1841,128
45.2426,116
45.3011,128
45.3596,132
45.4181,120
45.4766,119
45.535,140
45.5935,118
45.652,118
45.7105,120
45.769,200
45.8275,148
45.886,172
45.9445,146
46.003,108
46.0614,111
46.1199,97
46.1784,86
46.2369,104
46.2954,94
46.3539,101
46.4124,111
46.4709,108
46.5294,88
46.5879,103
46.6463,114
46.7048,97
46.7633,114
46.8218,109
46.8803,131
46.9388,158
46.9973,125
47.0558,189
47.1143,265
47.1727,292
47.2312,242
47.2897,192
47.3482,197
47.4067,172
47.4652,119
47.5237,140
47.5822,148
47.6407,132
47.6991,147
47.7576,116
47.8161,114
47.8746,110
47.9331,119
47.9916,108
48.0501,114
48.1086,108
48.1671,100
48.2256,111
48.284,101
48.3425,114
48.401,113
48.4595,115
48.518,141
48.5765,114
48.635,125
48.6935,109
48.752,121
48.8104,135
48.8689,126
48.9274,133
48.9859,122
49.0444,136
49.1029,124
49.1614,108
49.2199,120
49.2784,110
49.3369,123
49.3953,111
49.4538,81
49.5123,123
49.5708,107
49.6293,115
49.6878,116
49.7463,114
49.8048,130
49.8633,137
49.9217,158
49.9802,158
50.0387,162
50.0972,235
50.1557,950
50.2142,324
50.2727,430
50.3312,406
50.3897,177
50.4482,236
50.5066,196
50.5651,204
50.6236,219
50.6821,268
50.7406,246
50.7991,252
50.8576,315
50.9161,189
50.9746,205
51.033,169
51.0915,105
51.15,108
51.2085,102
51.267,105
51.3255,100
51.384,111
51.4425,96
51.501,92
51.5595,112
51.6179,97
51.6764,123
51.7349,114
51.7934,151
51.8519,113
51.9104,99
51.9689,82
52.0274,88
52.0859,83
52.1443,96
52.2028,99
52.2613,84
52.3198,91
52.3783,113
52.4368,112
52.4953,103
52.5538,103
52.6123,108
52.6708,94
52.7292,148
52.7877,109
52.8462,111
52.9047,111
52.9632,93
53.0217,87
53.0802,123
53.1387,153
53.1972,137
53.2556,113
53.3141,135
53.3726,103
53.4311,115
53.4896,118
53.5481,119
53.6066,99
53.6651,91
53.7236,109
53.7821,90
53.8405,91
53.899,92
53.9575,115
54.016,110
54.0745,75
54.133,115
54.1915,109
54.25,97
54.3085,121
54.3669,164
54.4254,153
54.4839,141
54.5424,111
54.6009,110
54.6594,89
54.7179,103
54.7764,121
54.8349,131
54.8934,192
54.9518,333
55.0103,216
55.0688,182
55.1273,184
55.1858,119
55.2443,108
55.3028,152
55.3613,145
55.4198,111
55.4782,157
55.5367,140
55.5952,103
55.6537,109
55.7122,97
55.7707,112
55.8292,120
55.8877,111
55.9462,99
56.0047,103
56.0631,90
56.1216,109
56.1801,104
56.2386,99
56.2971,89
56.3556,97
56.4141,98
56.4726,101
56.5311,107
56.5895,102
56.648,108
56.7065,103
56.765,115
56.8235,113
56.882,82
56.9405,104
56.999,91
57.0575,91
57.1159,82
57.1744,104
57.2329,109
57.2914,107
57.3499,99
57.4084,100
57.4669,111
57.5254,93
57.5839,118
57.6424,101
57.7008,99
57.7593,82
57.8178,105
57.8763,110
57.9348,110
57.9933,129
58.0518,109
58.1103,115
58.1688,118
58.2272,105
58.2857,111
58.3442,111
58.4027,109
58.4612,100
58.5197,107
58.5782,102
58.6367,89
58.6952,112
58.7537,101
58.8121,104
58.8706,90
58.9291,115
58.9876,92
59.0461,99
59.1046,98
59.1631,92
59.2216,94
59.2801,75
59.3385,112
59.397,136
59.4555,116
59.514,122
59.5725,98
59.631,116
59.6895,100
59.748,128
59.8065,157
59.865,237
59.9234,1099
59.9819,1488
60.0404,623
60.0989,748
60.1574,718
60.2159,238
60.2744,120
60.3329,100
60.3914,109
60.4498,103
60.5083,94
60.5668,89
60.6253,102
60.6838,97
60.7423,94
60.8008,83
60.8593,94
60.9178,112
60.9763,100
61.0347,101
61.0932,107
61.1517,102
61.2102,103
61.2687,121
61.3272,115
61.3857,115
61.4442,99
61.5027,100
61.5611,82
61.6196,87
61.6781,100
61.7366,91
61.7951,103
61.8536,81
61.9121,81
61.9706,112
62.0291,86
62.0876,84
62.146,89
62.2045,105
62.263,75
62.3215,92
62.38,90
62.4385,110
62.497,116
62.5555,116
62.614,154
62.6724,145
62.7309,103
62.7894,100
62.8479,102
62.9064,103
62.9649,87
63.0234,88
63.0819,93
63.1404,104
63.1989,89
63.2573,88
63.3158,109
63.3743,94
63.4328,97
63.4913,91
63.5498,93
63.6083,80
63.6668,108
63.7253,105
63.7837,89
63.8422,100
63.9007,96
63.9592,77
64.0177,99
64.0762,105
64.1347,107
64.1932,136
64.2517,116
64.3102,120
64.3686,107
64.4271,103
64.4856,75
64.5441,100
64.6026,103
64.6611,91
64.7196,90
64.7781,79
64.8366,81
64.895,86
64.9535,103
65.012,93
65.0705,90
65.129,78
65.1875,84
65.246,97
65.3045,87
65.363,105
65.4215,84
65.4799,89
65.5384,70
65.5969,77
65.6554,108
65.7139,99
65.7724,88
65.8309,97
65.8894,91
65.9479,88
66.0063,87
66.0648,69
66.1233,78
66.1818,93
66.2403,111
66.2988,92
66.3573,89
66.4158,73
66.4743,92
66.5328,89
66.5912,94
66.6497,70
66.7082,83
66.7667,72
66.8252,78
66.8837,94
66.9422,75
67.0007,78
67.0592,105
67.1176,120
67.1761,129
67.2346,143
67.2931,122
67.3516,109
67.4101,122
67.4686,98
67.5271,90
67.5856,116
67.644,103
67.7025,123
67.761,210
67.8195,310
67.878,143
67.9365,187
67.995,257
68.0535,158
68.112,130
68.1705,118
68.2289,125
68.2874,98
68.3459,97
68.4044,98
68.4629,76
68.5214,83
68.5799,98
68.6384,93
68.6969,90
68.7553,78
68.8138,84
68.8723,64
68.9308,78
68.9893,77
69.0478,83
69.1063,68
69.1648,78
69.2233,86
69.2818,80
69.3402,69
69.3987,76
69.4572,84
69.5157,88
69.5742,88
69.6327,82
69.6912,80
69.7497,82
69.8082,72
69.8666,96
69.9251,79
69.9836,76
70.0421,88
70.1006,96
70.1591,81
70.2176,87
70.2761,90
70.3346,86
70.3931,79
70.4515,80
70.51,77
70.5685,107
70.627,79
70.6855,78
70.744,65
70.8025,84
70.861,77
70.9195,78
70.9779,99
71.0364,100
71.0949,75
71.1534,83
71.2119,81
71.2704,89
71.3289,76
71.3874,84
71.4459,100
71.5044,89
71.5628,86
71.6213,89
71.6798,105
71.7383,96
71.7968,113
71.8553,84
71.9138,125
71.9723,134
72.0308,183
72.0892,215
72.1477,196
72.2062,148
72.2647,156
72.3232,184
72.3817,126
72.4402,111
72.4987,101
72.5572,99
72.6157,86
72.6741,98
72.7326,94
72.7911,87
72.8496,84
72.9081,98
72.9666,71
73.0251,94
73.0836,61
73.1421,87
73.2005,91
73.259,83
73.3175,111
73.376,86
73.4345,92
73.493,89
73.5515,79
73.61,89
73.6685,97
73.727,97
73.7854,100
73.8439,84
73.9024,86
73.9609,92
74.0194,84
74.0779,77
74.1364,82
74.1949,83
74.2534,104
74.3118,81
74.3703,115
74.4288,105
74.4873,83
74.5458,86
74.6043,88
74.6628,90
74.7213,78
74.7798,67
74.8383,90
74.8967,81
74.9552,93
75.0137,91
75.0722,100
75.1307,80
75.1892,91
75.2477,91
75.3062,90
75.3647,88
75.4231,80
75.4816,80
75.5401,90
75.5986,69
75.6571,89
75.7156,93
75.7741,90
75.8326,86
75.8911,98
75.9496,97
76.008,109
76.0665,97
76.125,88
76.1835,88
76.242,80
76.3005,83
76.359,75
76.4175,83
76.476,80
76.5344,75
76.5929,98
76.6514,75
76.7099,67
76.7684,84
76.8269,79
76.8854,66
76.9439,70
77.0024,73
77.0608,60
77.1193,78
77.1778,83
77.2363,99
77.2948,84
77.3533,79
77.4118,76
77.4703,75
77.5288,79
77.5873,72
77.6457,75
77.7042,70
77.7627,99
77.8212,86
77.8797,84
77.9382,92
77.9967,76
78.0552,66
78.1137,79
78.1721,84
78.2306,78
78.2891,110
78.3476,89
78.4061,80
78.4646,92
78.5231,87
78.5816,86
78.6401,77
78.6986,92
78.757,80
78.8155,103
78.874,78
78.9325,79
78.991,75
79.0495,103
79.108,75
79.1665,91
79.225,96
79.2834,80
79.3419,81
79.4004,72
79.4589,102
79.5174,75
79.5759,77
79.6344,87
79.6929,96
79.7514,78
79.8099,94
79.8683,105
79.9268,97
79.9853,133
80.0438,98
80.1023,102
80.1608,103
80.2193,111
80.2778,112
80.3363,81
80.3947,99
80.4532,72
80.5117,72
80.5702,73
80.6287,72
80.6872,91
80.7457,88
80.8042,89
80.8627,81
80.9212,80
80.9796,89
81.0381,71
81.0966,77
81.1551,93
81.2136,116
81.2721,88
81.3306,75
81.3891,99
81.4476,148
81.506,98
81.5645,83
81.623,93
81.6815,104
81.74,90
81.7985,66
81.857,97
81.9155,92
81.974,82
82.0325,91
82.0909,75
82.1494,67
82.2079,78
82.2664,75
82.3249,78
82.3834,69
82.4419,93
82.5004,82
82.5589,102
82.6173,65
82.6758,104
82.7343,83
82.7928,78
82.8513,69
82.9098,77
82.9683,93
83.0268,98
83.0853,93
83.1438,83
83.2022,68
83.2607,101
83.3192,86
83.3777,87
83.4362,86
83.4947,80
83.5532,72
83.6117,70
83.6702,79
83.7286,72
83.7871,67
83.8456,118
83.9041,126
83.9626,90
84.0211,96
84.0796,101
84.1381,151
84.1966,111
84.2551,93
84.3135,64
84.372,90
84.4305,73
84.489,76
84.5475,92
84.606,93
84.6645,97
84.723,107
84.7815,110
84.8399,97
84.8984,88
84.9569,132
85.0154,87
85.0739,82
85.1324,93
85.1909,86
85.2494,92
85.3079,73
85.3664,75
85.4248,100
85.4833,70
85.5418,78
85.6003,69
85.6588,89
85.7173,73
85.7758,88
85.8343,77
85.8928,71
85.9512,82
86.0097,69
86.0682,79
86.1267,87
86.1852,76
86.2437,107
86.3022,80
86.3607,84
86.4192,79
86.4776,81
86.5361,78
86.5946,80
86.6531,82
86.7116,55
86.7701,56
86.8286,94
86.8871,73
86.9456,76
87.0041,99
87.0625,100
87.121,75
87.1795,62
87.238,84
87.2965,64
87.355,88
87.4135,79
87.472,71
87.5305,99
87.5889,84
87.6474,66
87.7059,71
87.7644,89
87.8229,84
87.8814,59
87.9399,75
87.9984,86
88.0569,56
88.1154,93
88.1738,66
88.2323,101
88.2908,125
88.3493,123
88.4078,100
88.4663,82
88.5248,98
88.5833,111
88.6418,103
88.7002,91
88.7587,81
88.8172,91
88.8757,91
88.9342,78
88.9927,71
89.0512,60
89.1097,83
89.1682,79
89.2267,81
89.2851,78
89.3436,76
89.4021,73
89.4606,61
89.5191,68
89.5776,82
89.6361,92
89.6946,72
89.7531,75
89.8115,79
89.87,75
89.9285,75
89.987,65
89.9954,75