File: XRD_csv/OPCM- 21 D 2.csv
Angle,Intensity
5.99618,904
6.05467,903
6.11316,816
6.17165,783
6.23014,813
6.28863,793
6.34711,743
6.4056,808
6.46409,776
6.52258,748
6.58107,681
6.63956,702
6.69805,713
6.75654,656
6.81503,651
6.87352,656
6.93201,641
6.9905,616
7.04899,609
7.10748,649
7.16597,615
7.22446,603
7.28295,563
7.34143,590
7.39992,577
7.45841,590
7.5169,623
7.57539,577
7.63388,541
7.69237,516
7.75086,540
7.80935,551
7.86784,563
7.92633,516
7.98482,571
8.04331,564
8.1018,532
8.16029,525
8.21878,520
8.27727,518
8.33576,539
8.39424,570
8.45273,537
8.51122,504
8.56971,468
8.6282,552
8.68669,544
8.74518,551
8.80367,561
8.86216,563
8.92065,535
8.97914,557
9.03763,583
9.09612,615
9.15461,592
9.2131,513
9.27159,525
9.33008,498
9.38857,504
9.44705,471
9.50554,560
9.56403,487
9.62252,477
9.68101,449
9.7395,483
9.79799,464
9.85648,452
9.91497,505
9.97346,504
10.0319,491
10.0904,466
10.1489,427
10.2074,435
10.2659,434
10.3244,446
10.3829,414
10.4414,482
10.4999,420
10.5584,453
10.6168,496
10.6753,442
10.7338,425
10.7923,456
10.8508,423
10.9093,434
10.9678,418
11.0263,412
11.0848,392
11.1432,398
11.2017,442
11.2602,410
11.3187,461
11.3772,457
11.4357,409
11.4942,443
11.5527,418
11.6112,379
11.6697,407
11.7281,390
11.7866,442
11.8451,399
11.9036,386
11.9621,399
12.0206,384
12.0791,445
12.1376,403
12.1961,396
12.2545,396
12.313,404
12.3715,361
12.43,377
12.4885,340
12.547,345
12.6055,343
12.664,343
12.7225,359
12.781,326
12.8394,395
12.8979,390
12.9564,366
13.0149,357
13.0734,333
13.1319,421
13.1904,323
13.2489,321
13.3074,345
13.3658,335
13.4243,342
13.4828,354
13.5413,324
13.5998,412
13.6583,366
13.7168,340
13.7753,354
13.8338,347
13.8923,320
13.9507,331
14.0092,318
14.0677,320
14.1262,310
14.1847,307
14.2432,297
14.3017,295
14.3602,275
14.4187,314
14.4771,275
14.5356,289
14.5941,347
14.6526,289
14.7111,308
14.7696,294
14.8281,292
14.8866,311
14.9451,307
15.0036,300
15.062,290
15.1205,289
15.179,284
15.2375,262
15.296,289
15.3545,284
15.413,259
15.4715,308
15.53,275
15.5884,284
15.6469,290
15.7054,311
15.7639,305
15.8224,308
15.8809,311
15.9394,292
15.9979,295
16.0564,267
16.1149,249
16.1733,257
16.2318,263
16.2903,322
16.3488,273
16.4073,297
16.4658,281
16.5243,254
16.5828,260
16.6413,283
16.6997,262
16.7582,274
16.8167,282
16.8752,218
16.9337,288
16.9922,323
17.0507,315
17.1092,254
17.1677,281
17.2262,271
17.2846,261
17.3431,259
17.4016,256
17.4601,302
17.5186,270
17.5771,243
17.6356,269
17.6941,300
17.7526,282
17.811,346
17.8695,386
17.928,518
17.9865,837
18.045,984
18.1035,605
18.162,314
18.2205,257
18.279,236
18.3375,251
18.3959,258
18.4544,236
18.5129,233
18.5714,239
18.6299,229
18.6884,265
18.7469,259
18.8054,249
18.8639,244
18.9223,244
18.9808,246
19.0393,278
19.0978,231
19.1563,269
19.2148,229
19.2733,249
19.3318,240
19.3903,220
19.4487,221
19.5072,240
19.5657,240
19.6242,257
19.6827,249
19.7412,274
19.7997,233
19.8582,231
19.9167,248
19.9752,230
20.0336,247
20.0921,232
20.1506,232
20.2091,242
20.2676,215
20.3261,216
20.3846,218
20.4431,211
20.5016,250
20.56,248
20.6185,232
20.677,288
20.7355,375
20.794,1141
20.8525,993
20.911,502
20.9695,470
21.028,455
21.0865,323
21.1449,243
21.2034,219
21.2619,207
21.3204,212
21.3789,237
21.4374,218
21.4959,219
21.5544,224
21.6129,214
21.6713,244
21.7298,218
21.7883,246
21.8468,236
21.9053,231
21.9638,241
22.0223,246
22.0808,242
22.1393,226
22.1978,263
22.2562,320
22.3147,286
22.3732,226
22.4317,195
22.4902,237
22.5487,220
22.6072,217
22.6657,221
22.7242,247
22.7826,257
22.8411,263
22.8996,278
22.9581,279
23.0166,312
23.0751,307
23.1336,352
23.1921,346
23.2506,286
23.3091,225
23.3675,224
23.426,247
23.4845,227
23.543,257
23.6015,219
23.66,189
23.7185,219
23.777,218
23.8355,217
23.8939,198
23.9524,282
24.0109,267
24.0694,258
24.1279,243
24.1864,232
24.2449,264
24.3034,264
24.3619,211
24.4204,228
24.4788,205
24.5373,232
24.5958,230
24.6543,219
24.7128,257
24.7713,216
24.8298,220
24.8883,224
24.9468,215
25.0052,220
25.0637,233
25.1222,230
25.1807,177
25.2392,197
25.2977,218
25.3562,259
25.4147,256
25.4732,311
25.5317,333
25.5901,312
25.6486,267
25.7071,258
25.7656,209
25.8241,194
25.8826,217
25.9411,224
25.9996,224
26.0581,222
26.1165,244
26.175,290
26.2335,358
26.292,339
26.3505,377
26.409,424
26.4675,615
26.526,697
26.5845,849
26.643,1384
26.7014,822
26.7599,308
26.8184,295
26.8769,265
26.9354,229
26.9939,254
27.0524,278
27.1109,268
27.1694,269
27.2278,366
27.2863,418
27.3448,1046
27.4033,1578
27.4618,1771
27.5203,1033
27.5788,462
27.6373,338
27.6958,280
27.7543,282
27.8127,294
27.8712,369
27.9297,581
27.9882,739
28.0467,783
28.1052,284
28.1637,307
28.2222,290
28.2807,274
28.3391,246
28.3976,532
28.4561,352
28.5146,272
28.5731,249
28.6316,335
28.6901,377
28.7486,316
28.8071,233
28.8655,272
28.924,276
28.9825,268
29.041,239
29.0995,276
29.158,292
29.2165,323
29.275,411
29.3335,530
29.392,651
29.4504,595
29.5089,485
29.5674,396
29.6259,312
29.6844,311
29.7429,306
29.8014,260
29.8599,291
29.9184,261
29.9768,246
30.0353,301
30.0938,416
30.1523,353
30.2108,301
30.2693,311
30.3278,243
30.3863,263
30.4448,252
30.5033,262
30.5617,250
30.6202,250
30.6787,257
30.7372,278
30.7957,251
30.8542,279
30.91268,273
30.9712,242
31.0297,254
31.0881,216
31.1466,222
31.2051,226
31.2636,257
31.3221,251
31.3806,244
31.4391,259
31.4976,219
31.5561,232
31.6146,226
31.673,215
31.7315,225
31.79,229
31.8485,242
31.907,246
31.9655,279
32.024,313
32.0825,356
32.141,441
32.1994,370
32.2579,284
32.3164,262
32.3749,275
32.4334,291
32.4919,303
32.5504,337
32.6089,299
32.6674,258
32.7259,247
32.7843,229
32.8428,241
32.9013,217
32.9598,263
33.0183,205
33.0768,203
33.1353,206
33.1938,199
33.2523,214
33.3107,201
33.3692,230
33.4277,229
33.4862,203
33.5447,258
33.6032,242
33.6617,269
33.7202,268
33.7787,300
33.8372,358
33.8956,312
33.9541,387
34.0126,574
34.0711,1043
34.1296,795
34.1881,606
34.2466,416
34.3051,378
34.3636,283
34.422,260
34.4805,211
34.539,218
34.5975,207
34.656,204
34.7145,201
34.773,203
34.8315,194
34.89,232
34.9485,258
35.0069,211
35.0654,226
35.1239,215
35.1824,236
35.2409,206
35.2994,216
35.3579,195
35.4164,208
35.4749,172
35.5333,240
35.5918,256
35.6503,230
35.7088,188
35.7673,192
35.8258,207
35.8843,186
35.9428,229
36.0013,190
36.0598,231
36.1182,205
36.1767,187
36.2352,179
36.2937,194
36.3522,173
36.4107,155
36.4692,209
36.5277,261
36.5862,217
36.6446,206
36.7031,182
36.7616,171
36.8201,192
36.8786,173
36.9371,199
36.9956,184
37.0541,183
37.1126,185
37.1711,173
37.2295,172
37.288,172
37.3465,167
37.405,195
37.4635,151
37.522,158
37.5805,152
37.639,150
37.6975,162
37.7559,156
37.8144,155
37.8729,160
37.9314,146
37.9899,147
38.0484,173
38.1069,143
38.1654,161
38.2239,154
38.2823,166
38.3408,154
38.3993,185
38.4578,175
38.5163,212
38.5748,189
38.6333,168
38.6918,174
38.7503,146
38.8088,171
38.8672,167
38.9257,165
38.9842,142
39.0427,172
39.1012,142
39.1597,165
39.2182,182
39.2767,167
39.3352,193
39.3936,224
39.4521,244
39.5106,226
39.5691,221
39.6276,166
39.6861,154
39.7446,148
39.8031,148
39.8616,153
39.9201,145
39.9785,155
40.037,185
40.0955,136
40.154,139
40.2125,178
40.271,161
40.3295,161
40.388,165
40.4465,148
40.5049,144
40.5634,166
40.6219,169
40.6804,155
40.7389,179
40.7974,200
40.8559,196
40.9144,180
40.9729,157
41.0314,200
41.0898,190
41.1483,214
41.2068,201
41.2653,224
41.3238,144
41.3823,142
41.4408,171
41.4993,153
41.5578,171
41.6162,168
41.6747,195
41.7332,209
41.7917,235
41.8502,184
41.9087,199
41.9672,152
42.0257,136
42.0842,148
42.1427,152
42.2011,133
42.2596,152
42.3181,158
42.3766,177
42.4351,331
42.4936,209
42.5521,259
42.6106,198
42.6691,189
42.7275,184
42.786,192
42.8445,174
42.903,178
42.9615,145
43.02,217
43.0785,218
43.137,230
43.1955,249
43.254,249
43.3124,207
43.3709,208
43.4294,207
43.4879,177
43.5464,187
43.6049,161
43.6634,155
43.7219,166
43.7804,174
43.8388,172
43.8973,148
43.9558,168
44.0143,165
44.0728,178
44.1313,156
44.1898,155
44.2483,147
44.3068,150
44.3653,153
44.4237,160
44.4822,173
44.5407,150
44.5992,166
44.6577,154
44.7162,178
44.7747,171
44.8332,169
44.8917,162
44.9501,153
45.0086,144
45.0671,140
45.1256,158
45.1841,156
45.2426,120
45.3011,169
45.3596,147
45.4181,172
45.4766,171
45.535,177
45.5935,167
45.652,180
45.7105,167
45.769,236
45.8275,167
45.886,183
45.9445,176
46.003,174
46.0614,139
46.1199,124
46.1784,142
46.2369,136
46.2954,140
46.3539,165
46.4124,141
46.4709,158
46.5294,134
46.5879,142
46.6463,160
46.7048,169
46.7633,186
46.8218,175
46.8803,195
46.9388,221
46.9973,300
47.0558,434
47.1143,455
47.1727,357
47.2312,338
47.2897,281
47.3482,242
47.4067,201
47.4652,231
47.5237,190
47.5822,205
47.6407,183
47.6991,164
47.7576,148
47.8161,155
47.8746,134
47.9331,150
47.9916,144
48.0501,171
48.1086,160
48.1671,154
48.2256,171
48.284,176
48.3425,152
48.401,186
48.4595,186
48.518,195
48.5765,169
48.635,187
48.6935,175
48.752,167
48.8104,161
48.8689,152
48.9274,171
48.9859,160
49.0444,150
49.1029,163
49.1614,169
49.2199,145
49.2784,129
49.3369,147
49.3953,131
49.4538,152
49.5123,160
49.5708,165
49.6293,158
49.6878,187
49.7463,135
49.8048,197
49.8633,208
49.9217,239
49.9802,189
50.0387,232
50.0972,376
50.1557,1103
50.2142,284
50.2727,717
50.3312,261
50.3897,216
50.4482,185
50.5066,274
50.5651,197
50.6236,205
50.6821,264
50.7406,321
50.7991,353
50.8576,230
50.9161,286
50.9746,194
51.033,143
51.0915,175
51.15,144
51.2085,135
51.267,135
51.3255,125
51.384,144
51.4425,132
51.501,160
51.5595,139
51.6179,148
51.6764,164
51.7349,129
51.7934,151
51.8519,130
51.9104,128
51.9689,142
52.0274,129
52.0859,144
52.1443,134
52.2028,141
52.2613,139
52.3198,143
52.3783,139
52.4368,128
52.4953,126
52.5538,151
52.6123,148
52.6708,154
52.7292,137
52.7877,133
52.8462,139
52.9047,146
52.9632,182
53.0217,157
53.0802,148
53.1387,136
53.1972,109
53.2556,141
53.3141,146
53.3726,120
53.4311,113
53.4896,113
53.5481,136
53.6066,144
53.6651,152
53.7236,121
53.7821,145
53.8405,122
53.899,132
53.9575,111
54.016,123
54.0745,139
54.133,205
54.1915,216
54.25,247
54.3085,263
54.3669,228
54.4254,214
54.4839,184
54.5424,160
54.6009,131
54.6594,150
54.7179,125
54.7764,137
54.8349,176
54.8934,169
54.9518,135
55.0103,150
55.0688,153
55.1273,141
55.1858,152
55.2443,173
55.3028,172
55.3613,150
55.4198,134
55.4782,142
55.5367,130
55.5952,134
55.6537,126
55.7122,114
55.7707,122
55.8292,129
55.8877,114
55.9462,137
56.0047,134
56.0631,128
56.1216,124
56.1801,135
56.2386,130
56.2971,131
56.3556,121
56.4141,124
56.4726,144
56.5311,139
56.5895,150
56.648,129
56.7065,129
56.765,123
56.8235,88
56.882,129
56.9405,134
56.999,128
57.0575,123
57.1159,128
57.1744,155
57.2329,142
57.2914,141
57.3499,139
57.4084,151
57.4669,134
57.5254,128
57.5839,125
57.6424,143
57.7008,115
57.7593,107
57.8178,122
57.8763,120
57.9348,139
57.9933,147
58.0518,113
58.1103,158
58.1688,145
58.2272,136
58.2857,119
58.3442,162
58.4027,153
58.4612,145
58.5197,146
58.5782,148
58.6367,178
58.6952,188
58.7537,156
58.8121,166
58.8706,157
58.9291,125
58.9876,136
59.0461,120
59.1046,110
59.1631,118
59.2216,141
59.2801,135
59.3385,147
59.397,143
59.4555,143
59.514,119
59.5725,129
59.631,114
59.6895,139
59.748,131
59.8065,140
59.865,173
59.9234,263
59.9819,200
60.0404,173
60.0989,203
60.1574,158
60.2159,146
60.2744,144
60.3329,139
60.3914,147
60.4498,137
60.5083,136
60.5668,145
60.6253,123
60.6838,128
60.7423,123
60.8008,150
60.8593,131
60.9178,125
60.9763,155
61.0347,154
61.0932,214
61.1517,283
61.2102,188
61.2687,189
61.3272,211
61.3857,172
61.4442,140
61.5027,150
61.5611,140
61.6196,139
61.6781,130
61.7366,120
61.7951,136
61.8536,134
61.9121,128
61.9706,113
62.0291,113
62.0876,116
62.146,120
62.2045,130
62.263,137
62.3215,119
62.38,128
62.4385,153
62.497,124
62.5555,176
62.614,164
62.6724,166
62.7309,168
62.7894,133
62.8479,139
62.9064,116
62.9649,132
63.0234,151
63.0819,130
63.1404,131
63.1989,151
63.2573,128
63.3158,147
63.3743,137
63.4328,124
63.4913,119
63.5498,112
63.6083,112
63.6668,109
63.7253,125
63.7837,110
63.8422,135
63.9007,115
63.9592,163
64.0177,190
64.0762,157
64.1347,183
64.1932,211
64.2517,174
64.3102,167
64.3686,157
64.4271,129
64.4856,125
64.5441,124
64.6026,130
64.6611,121
64.7196,104
64.7781,98
64.8366,135
64.895,123
64.9535,110
65.012,124
65.0705,102
65.129,96
65.1875,133
65.246,102
65.3045,134
65.363,108
65.4215,110
65.4799,118
65.5384,105
65.5969,122
65.6554,119
65.7139,94
65.7724,140
65.8309,108
65.8894,119
65.9479,135
66.0063,125
66.0648,123
66.1233,110
66.1818,125
66.2403,133
66.2988,151
66.3573,130
66.4158,144
66.4743,107
66.5328,123
66.5912,143
66.6497,123
66.7082,110
66.7667,113
66.8252,113
66.8837,137
66.9422,129
67.0007,111
67.0592,107
67.1176,116
67.1761,130
67.2346,129
67.2931,122
67.3516,98
67.4101,99
67.4686,113
67.5271,139
67.5856,153
67.644,143
67.7025,329
67.761,198
67.8195,151
67.878,215
67.9365,183
67.995,131
68.0535,175
68.112,209
68.1705,153
68.2289,228
68.2874,410
68.3459,262
68.4044,167
68.4629,220
68.5214,242
68.5799,140
68.6384,133
68.6969,126
68.7553,112
68.8138,96
68.8723,124
68.9308,114
68.9893,120
69.0478,130
69.1063,116
69.1648,105
69.2233,125
69.2818,128
69.3402,103
69.3987,125
69.4572,120
69.5157,111
69.5742,116
69.6327,122
69.6912,91
69.7497,103
69.8082,110
69.8666,124
69.9251,119
69.9836,125
70.0421,124
70.1006,128
70.1591,92
70.2176,118
70.2761,122
70.3346,119
70.3931,112
70.4515,115
70.51,113
70.5685,124
70.627,112
70.6855,112
70.744,114
70.8025,103
70.861,96
70.9195,126
70.9779,102
71.0364,118
71.0949,102
71.1534,120
71.2119,100
71.2704,105
71.3289,104
71.3874,100
71.4459,121
71.5044,120
71.5628,143
71.6213,113
71.6798,131
71.7383,167
71.7968,130
71.8553,122
71.9138,141
71.9723,129
72.0308,132
72.0892,109
72.1477,121
72.2062,83
72.2647,125
72.3232,122
72.3817,109
72.4402,115
72.4987,100
72.5572,103
72.6157,128
72.6741,103
72.7326,102
72.7911,110
72.8496,144
72.9081,113
72.9666,102
73.0251,96
73.0836,89
73.1421,100
73.2005,102
73.259,116
73.3175,79
73.376,93
73.4345,120
73.493,99
73.5515,105
73.61,108
73.6685,99
73.727,120
73.7854,105
73.8439,102
73.9024,87
73.9609,104
74.0194,118
74.0779,84
74.1364,110
74.1949,88
74.2534,115
74.3118,102
74.3703,93
74.4288,93
74.4873,112
74.5458,101
74.6043,100
74.6628,126
74.7213,119
74.7798,113
74.8383,122
74.8967,139
74.9552,135
75.0137,120
75.0722,102
75.1307,118
75.1892,123
75.2477,92
75.3062,99
75.3647,119
75.4231,98
75.4816,124
75.5401,122
75.5986,126
75.6571,112
75.7156,109
75.7741,98
75.8326,110
75.8911,105
75.9496,108
76.008,103
76.0665,92
76.125,96
76.1835,110
76.242,98
76.3005,88
76.359,92
76.4175,78
76.476,88
76.5344,90
76.5929,91
76.6514,83
76.7099,108
76.7684,108
76.8269,107
76.8854,102
76.9439,98
77.0024,100
77.0608,96
77.1193,104
77.1778,102
77.2363,89
77.2948,93
77.3533,96
77.4118,101
77.4703,108
77.5288,91
77.5873,119
77.6457,105
77.7042,105
77.7627,110
77.8212,104
77.8797,94
77.9382,111
77.9967,96
78.0552,102
78.1137,97
78.1721,93
78.2306,115
78.2891,87
78.3476,102
78.4061,96
78.4646,100
78.5231,105
78.5816,113
78.6401,116
78.6986,93
78.757,115
78.8155,109
78.874,98
78.9325,99
78.991,99
79.0495,109
79.108,103
79.1665,112
79.225,98
79.2834,108
79.3419,100
79.4004,107
79.4589,99
79.5174,99
79.5759,92
79.6344,97
79.6929,96
79.7514,99
79.8099,103
79.8683,125
79.9268,112
79.9853,110
80.0438,148
80.1023,134
80.1608,97
80.2193,130
80.2778,131
80.3363,135
80.3947,101
80.4532,114
80.5117,82
80.5702,121
80.6287,110
80.6872,123
80.7457,119
80.8042,100
80.8627,97
80.9212,97
80.9796,96
81.0381,126
81.0966,121
81.1551,118
81.2136,126
81.2721,118
81.3306,115
81.3891,150
81.4476,238
81.506,208
81.5645,114
81.623,114
81.6815,173
81.74,196
81.7985,123
81.857,103
81.9155,92
81.974,111
82.0325,86
82.0909,111
82.1494,125
82.2079,99
82.2664,121
82.3249,94
82.3834,109
82.4419,110
82.5004,119
82.5589,107
82.6173,96
82.6758,113
82.7343,110
82.7928,112
82.8513,89
82.9098,90
82.9683,107
83.0268,102
83.0853,98
83.1438,118
83.2022,112
83.2607,69
83.3192,94
83.3777,115
83.4362,111
83.4947,105
83.5532,110
83.6117,105
83.6702,121
83.7286,107
83.7871,114
83.8456,137
83.9041,116
83.9626,84
84.0211,102
84.0796,125
84.1381,118
84.1966,99
84.2551,101
84.3135,92
84.372,102
84.4305,112
84.489,111
84.5475,128
84.606,128
84.6645,135
84.723,123
84.7815,116
84.8399,126
84.8984,123
84.9569,122
85.0154,112
85.0739,94
85.1324,126
85.1909,104
85.2494,100
85.3079,108
85.3664,88
85.4248,110
85.4833,102
85.5418,101
85.6003,91
85.6588,124
85.7173,99
85.7758,82
85.8343,101
85.8928,113
85.9512,98
86.0097,87
86.0682,92
86.1267,114
86.1852,92
86.2437,105
86.3022,115
86.3607,104
86.4192,108
86.4776,92
86.5361,98
86.5946,100
86.6531,94
86.7116,98
86.7701,94
86.8286,113
86.8871,94
86.9456,78
87.0041,80
87.0625,99
87.121,112
87.1795,104
87.238,86
87.2965,90
87.355,80
87.4135,103
87.472,105
87.5305,89
87.5889,115
87.6474,83
87.7059,98
87.7644,105
87.8229,97
87.8814,119
87.9399,91
87.9984,96
88.0569,89
88.1154,83
88.1738,94
88.2323,98
88.2908,98
88.3493,104
88.4078,101
88.4663,91
88.5248,102
88.5833,89
88.6418,87
88.7002,101
88.7587,96
88.8172,102
88.8757,100
88.9342,90
88.9927,90
89.0512,98
89.1097,98
89.1682,100
89.2267,96
89.2851,96
89.3436,77
89.4021,75
89.4606,99
89.5191,96
89.5776,116
89.6361,101
89.6946,109
89.7531,87
89.8115,79
89.87,102
89.9285,102
89.987,79
89.9954,98