File: XRD_csv/OPCM-14D 1.csv
Angle,Intensity
6.00018,702
6.08373,675
6.16729,680
6.25085,584
6.3344,627
6.41796,588
6.50152,593
6.58507,615
6.66863,542
6.75218,529
6.83574,557
6.9193,501
7.00285,497
7.08641,483
7.16997,490
7.253523,471
7.33708,445
7.42064,437
7.50419,447
7.58775,417
7.6713,462
7.75486,411
7.83842,423
7.92197,421
8.00553,414
8.08909,411
8.17264,413
8.2562,387
8.33976,385
8.42331,407
8.50687,417
8.59042,394
8.67398,389
8.75754,378
8.84109,437
8.92465,423
9.00821,402
9.09176,408
9.17532,409
9.25888,391
9.34243,391
9.42599,346
9.50954,400
9.5931,362
9.67666,362
9.76021,368
9.84377,369
9.92733,373
10.0109,366
10.0944,309
10.178,317
10.2616,322
10.3451,312
10.4287,343
10.5122,344
10.5958,337
10.6793,391
10.7629,328
10.8464,346
10.93,337
11.0136,391
11.0971,378
11.1807,298
11.2642,302
11.3478,309
11.4313,332
11.5149,327
11.5985,303
11.682,302
11.7656,318
11.8491,309
11.9327,305
12.0162,301
12.0998,328
12.1833,320
12.2669,302
12.3505,317
12.434,275
12.5176,284
12.6011,294
12.6847,290
12.7682,283
12.8518,273
12.9354,289
13.0189,265
13.1025,308
13.186,280
13.2696,258
13.3531,271
13.4367,261
13.5202,264
13.6038,331
13.6874,434
13.7709,242
13.8545,318
13.938,318
14.0216,289
14.1051,237
14.1887,257
14.2723,228
14.3558,243
14.4394,252
14.5229,251
14.6065,267
14.69,223
14.7736,206
14.8572,245
14.9407,277
15.0243,247
15.1078,217
15.1914,236
15.2749,219
15.3585,241
15.442,235
15.5256,227
15.6092,252
15.6927,235
15.7763,280
15.8598,275
15.9434,223
16.0269,228
16.1105,203
16.1941,217
16.2776,221
16.3612,231
16.4447,199
16.5283,209
16.6118,209
16.6954,227
16.7789,209
16.8625,231
16.9461,205
17.0296,212
17.1132,205
17.1967,198
17.2803,208
17.3638,214
17.4474,212
17.531,231
17.6145,216
17.6981,219
17.7816,251
17.8652,305
17.9487,375
18.0323,964
18.1158,1022
18.1994,257
18.283,196
18.3665,246
18.4501,225
18.5336,195
18.6172,203
18.7007,196
18.7843,205
18.8679,207
18.9514,226
19.035,233
19.1185,208
19.2021,202
19.2856,199
19.3692,204
19.4527,207
19.5363,195
19.6199,171
19.7034,185
19.787,176
19.8705,207
19.9541,217
20.0376,189
20.1212,174
20.2048,169
20.2883,190
20.3719,183
20.4554,169
20.539,169
20.6225,189
20.7061,216
20.7897,273
20.8732,1031
20.9568,474
21.0403,301
21.1239,187
21.2074,165
21.291,155
21.3745,175
21.4581,188
21.5417,185
21.6252,200
21.7088,150
21.7923,194
21.8759,177
21.9594,177
22.043,243
22.1266,234
22.2101,156
22.2937,183
22.3772,189
22.4608,198
22.5443,168
22.6279,178
22.7114,203
22.795,222
22.8786,245
22.9621,277
23.0457,247
23.1292,221
23.2128,354
23.2963,216
23.3799,175
23.4635,237
23.547,347
23.6306,193
23.7141,200
23.7977,168
23.8812,185
23.9648,246
24.0483,190
24.1319,176
24.2155,216
24.299,370
24.3826,229
24.4661,160
24.5497,193
24.6332,161
24.7168,183
24.8004,203
24.8839,155
24.9675,155
25.051,174
25.1346,175
25.2181,169
25.3017,167
25.3852,196
25.4688,227
25.5524,279
25.6359,253
25.7195,236
25.803,213
25.8866,165
25.9701,181
26.0537,148
26.1373,178
26.2208,224
26.3044,302
26.3879,399
26.4715,559
26.555,1162
26.6386,2660
26.7222,1863
26.8057,356
26.8893,234
26.9728,206
27.0564,299
27.1399,272
27.2235,254
27.307,352
27.3906,601
27.4742,5674
27.5577,2940
27.6413,418
27.7248,261
27.8084,285
27.8919,480
27.9755,744
28.0591,382
28.1426,262
28.2262,212
28.3097,207
28.3933,192
28.4768,208
28.5604,217
28.6439,284
28.7275,295
28.8111,221
28.8946,222
28.9782,215
29.0617,245
29.1453,228
29.2288,281
29.3124,315
29.396,448
29.4795,423
29.5631,298
29.6466,274
29.7302,233
29.8137,242
29.8973,231
29.9808,197
30.0644,223
30.148,248
30.2315,238
30.3151,199
30.3986,206
30.4822,227
30.5657,195
30.6493,203
30.7329,279
30.8164,344
30.9,257
30.9835,225
31.0671,193
31.1506,192
31.2342,215
31.3178,197
31.4013,214
31.4849,173
31.5684,199
31.652,190
31.7355,184
31.8191,180
31.9026,181
31.9862,245
32.0698,244
32.1533,291
32.2369,310
32.3204,231
32.404,232
32.4875,225
32.5711,238
32.6547,221
32.7382,176
32.8218,180
32.9053,166
32.9889,192
33.0724,189
33.156,137
33.2395,186
33.3231,180
33.4067,181
33.4902,178
33.5738,215
33.6573,224
33.7409,232
33.8244,228
33.908,264
33.9916,330
34.0751,611
34.1587,607
34.2422,384
34.3258,265
34.4093,207
34.4929,184
34.5764,171
34.66,180
34.7436,169
34.8271,185
34.9107,194
34.9942,181
35.0778,186
35.1613,183
35.2449,166
35.3285,202
35.412,159
35.4956,151
35.5791,147
35.6627,160
35.7462,150
35.8298,125
35.9133,165
35.9969,168
36.0805,162
36.164,190
36.2476,146
36.3311,155
36.4147,146
36.4982,209
36.5818,280
36.6654,261
36.7489,150
36.8325,135
36.916,166
36.9996,148
37.0831,141
37.1667,147
37.2503,151
37.3338,149
37.4174,145
37.5009,146
37.5845,157
37.668,147
37.7516,149
37.8351,125
37.9187,136
38.0023,127
38.0858,125
38.1694,127
38.2529,110
38.3365,121
38.42,129
38.5036,140
38.5872,146
38.6707,137
38.7543,145
38.8378,214
38.9214,150
39.0049,145
39.0885,122
39.172,151
39.2556,141
39.3392,155
39.4227,210
39.5063,428
39.5898,340
39.6734,155
39.7569,128
39.8405,114
39.9241,122
40.0076,106
40.0912,121
40.1747,107
40.2583,139
40.3418,194
40.4254,185
40.5089,113
40.5925,144
40.6761,122
40.7596,126
40.8432,128
40.9267,159
41.0103,170
41.0938,136
41.1774,147
41.261,177
41.3445,128
41.4281,146
41.5116,142
41.5952,135
41.6787,170
41.7623,178
41.8458,400
41.9294,332
42.013,140
42.0965,144
42.1801,128
42.2636,147
42.3472,118
42.4307,232
42.5143,150
42.5979,171
42.6814,135
42.765,141
42.8485,158
42.9321,164
43.0156,168
43.0992,137
43.1828,199
43.2663,145
43.3499,142
43.4334,145
43.517,138
43.6005,122
43.6841,120
43.7676,122
43.8512,131
43.9348,137
44.0183,140
44.1019,121
44.1854,145
44.269,140
44.3525,98
44.4361,120
44.5197,130
44.6032,177
44.6868,140
44.7703,140
44.8539,112
44.9374,85
45.021,110
45.1045,150
45.1881,114
45.2717,132
45.3552,136
45.4388,160
45.5223,148
45.6059,169
45.6894,258
45.773,251
45.8566,183
45.9401,186
46.0237,136
46.1072,127
46.1908,106
46.2743,116
46.3579,122
46.4414,113
46.525,107
46.6086,112
46.6921,116
46.7757,127
46.8592,144
46.9428,188
47.0263,261
47.1099,343
47.1935,293
47.277,276
47.3606,169
47.4441,178
47.5277,166
47.6112,175
47.6948,137
47.7784,149
47.8619,128
47.9455,147
48.029,126
48.1126,158
48.1961,139
48.2797,129
48.3632,141
48.4468,131
48.5304,154
48.6139,139
48.6975,139
48.781,135
48.8646,125
48.9481,117
49.0317,114
49.1153,125
49.1988,130
49.2824,130
49.3659,111
49.4495,118
49.533,120
49.6166,133
49.7001,130
49.7837,146
49.8673,150
49.9508,167
50.0344,145
50.1179,205
50.2015,171
50.285,227
50.3686,149
50.4522,156
50.5357,190
50.6193,177
50.7028,183
50.7864,354
50.8699,248
50.9535,231
51.037,164
51.1206,129
51.2042,112
51.2877,119
51.3713,92
51.4548,93
51.5384,119
51.6219,110
51.7055,114
51.7891,126
51.8726,109
51.9562,96
52.0397,106
52.1233,109
52.2068,132
52.2904,112
52.3739,97
52.4575,112
52.5411,119
52.6246,147
52.7082,171
52.7917,126
52.8753,140
52.9588,119
53.0424,106
53.126,118
53.2095,129
53.2931,109
53.3766,136
53.4602,102
53.5437,118
53.6273,103
53.7109,108
53.7944,88
53.878,103
53.9615,119
54.0451,103
54.1286,121
54.2122,145
54.2957,176
54.3793,155
54.4629,170
54.5464,146
54.63,108
54.7135,137
54.7971,130
54.8806,227
54.9642,166
55.0478,212
55.1313,126
55.2149,123
55.2984,139
55.382,118
55.4655,113
55.5491,100
55.6326,110
55.7162,100
55.7998,107
55.8833,101
55.9669,96
56.0504,108
56.134,121
56.2175,136
56.3011,121
56.3847,106
56.4682,118
56.5518,94
56.6353,129
56.7189,111
56.8024,130
56.886,130
56.9695,127
57.0531,104
57.1367,119
57.2202,137
57.3038,110
57.3873,132
57.4709,129
57.5544,104
57.638,106
57.7216,107
57.8051,113
57.8887,121
57.9722,112
58.0558,104
58.1393,128
58.2229,104
58.30645,133
58.39,121
58.4736,122
58.5571,107
58.6407,122
58.7242,111
58.8078,126
58.8913,108
58.9749,91
59.0585,97
59.142,100
59.2256,112
59.3091,116
59.3927,107
59.4762,129
59.5598,199
59.6434,117
59.7269,121
59.8105,133
59.894,151
59.9776,261
60.0611,112
60.1447,181
60.2282,138
60.3118,155
60.3954,113
60.4789,164
60.5625,107
60.646,112
60.7296,113
60.8131,117
60.8967,119
60.9803,91
61.0638,101
61.1474,90
61.2309,93
61.3145,103
61.398,97
61.4816,83
61.5651,99
61.6487,91
61.7323,92
61.8158,97
61.8994,82
61.9829,108
62.0665,96
62.15,109
62.2336,127
62.3172,116
62.4007,116
62.4843,142
62.5678,146
62.6514,125
62.7349,116
62.8185,98
62.902,104
62.9856,98
63.0692,97
63.1527,91
63.2363,103
63.3198,108
63.4034,88
63.4869,98
63.5705,118
63.6541,75
63.7376,106
63.8212,114
63.9047,114
63.9883,120
64.0718,150
64.1554,123
64.239,167
64.3225,110
64.4061,111
64.4896,117
64.5732,83
64.6567,99
64.7403,103
64.8238,103
64.9074,96
64.991,88
65.0745,93
65.1581,103
65.2416,103
65.3252,91
65.4087,88
65.4923,88
65.5759,99
65.6594,97
65.743,101
65.8265,87
65.9101,77
65.9936,93
66.0772,103
66.1607,91
66.2443,106
66.3279,103
66.4114,83
66.495,103
66.5785,99
66.6621,100
66.7456,88
66.8292,74
66.9128,92
66.9963,89
67.0799,87
67.1634,81
67.247,92
67.3305,104
67.4141,90
67.4976,82
67.5812,92
67.6648,89
67.7483,193
67.8319,116
67.9154,152
67.999,144
68.0825,120
68.1661,294
68.2497,158
68.3332,258
68.4168,119
68.5003,123
68.5839,92
68.6674,97
68.751,93
68.8345,94
68.9181,103
69.0017,82
69.0852,91
69.1688,91
69.2523,106
69.3359,80
69.4194,98
69.503,85
69.5866,107
69.6701,73
69.7537,84
69.8372,85
69.9208,91
70.0043,85
70.0879,109
70.1715,101
70.255,99
70.3386,111
70.4221,80
70.5057,92
70.5892,84
70.6728,78
70.7563,93
70.8399,100
70.9235,88
71.007,85
71.0906,94
71.1741,84
71.2577,80
71.3412,110
71.4248,88
71.5084,68
71.5919,87
71.6755,87
71.759,108
71.8426,116
71.9261,102
72.0097,73
72.0932,109
72.1768,93
72.2604,104
72.3439,118
72.4275,98
72.511,130
72.5946,90
72.6781,75
72.7617,103
72.8453,94
72.9288,91
73.0124,91
73.0959,90
73.1795,112
73.263,96
73.3466,109
73.4301,96
73.5137,109
73.5973,102
73.6808,91
73.7644,87
73.8479,88
73.9315,106
74.015,101
74.0986,80
74.1822,93
74.2657,85
74.3493,98
74.4328,94
74.5164,73
74.5999,96
74.6835,89
74.7671,84
74.8506,74
74.9342,73
75.0177,83
75.1013,111
75.1848,96
75.2684,74
75.3519,91
75.4355,83
75.5191,114
75.6026,104
75.6862,184
75.7697,94
75.8533,81
75.9368,100
76.0204,81
76.104,84
76.1875,78
76.2711,92
76.3546,78
76.4382,91
76.5217,88
76.6053,88
76.6888,77
76.7724,79
76.856,77
76.9395,87
77.0231,100
77.1066,92
77.1902,65
77.2737,70
77.3573,66
77.4409,102
77.5244,84
77.608,84
77.6915,97
77.7751,75
77.8586,109
77.9422,99
78.0257,83
78.1093,90
78.1929,96
78.2764,106
78.36,74
78.4435,91
78.5271,96
78.6106,79
78.6942,88
78.7778,68
78.8613,84
78.9449,72
79.0284,97
79.112,100
79.1955,100
79.2791,90
79.3626,85
79.4462,87
79.5298,54
79.6133,66
79.6969,79
79.7804,93
79.864,110
79.9475,116
80.0311,92
80.1147,96
80.1982,89
80.2818,98
80.3653,72
80.4489,88
80.5324,90
80.616,72
80.6996,96
80.7831,98
80.8667,56
80.9502,92
81.0338,77
81.1173,84
81.2009,100
81.2844,77
81.368,85
81.4516,99
81.5351,102
81.6187,79
81.7022,96
81.7858,103
81.8693,94
81.9529,85
82.0365,79
82.12,87
82.2036,85
82.2871,99
82.3707,96
82.4542,96
82.5378,79
82.6213,98
82.7049,93
82.7885,78
82.872,85
82.9556,81
83.0391,78
83.1227,73
83.2062,100
83.2898,87
83.3734,84
83.4569,70
83.5405,82
83.624,74
83.7076,103
83.7911,125
83.8747,130
83.9582,92
84.0418,85
84.1254,110
84.2089,92
84.2925,93
84.376,77
84.4596,88
84.5431,80
84.6267,99
84.7103,111
84.7938,110
84.8774,79
84.9609,106
85.0445,77
85.128,89
85.2116,93
85.2951,78
85.3787,96
85.4623,87
85.5458,71
85.6294,92
85.7129,85
85.7965,79
85.88,79
85.9636,99
86.0472,108
86.1307,84
86.2143,116
86.2978,99
86.3814,81
86.4649,100
86.5485,101
86.6321,77
86.7156,83
86.7992,69
86.8827,79
86.9663,75
87.0498,70
87.1334,65
87.2169,72
87.3005,77
87.3841,97
87.4676,126
87.5512,79
87.6347,81
87.7183,96
87.8018,89
87.8854,99
87.969,82
88.0525,84
88.1361,93
88.2196,91
88.3032,90
88.3867,88
88.4703,88
88.5538,80
88.6374,80
88.721,71
88.8045,72
88.8881,80
88.9716,70
89.0552,75
89.1387,75
89.2223,59
89.3059,73
89.3894,87
89.473,82
89.5565,78
89.6401,81
89.7236,84
89.8072,63
89.8907,75
89.9743,71
90.0579,92
90.1414,89
90.225,70
90.3085,77
90.3921,71
90.4756,80
90.5592,74
90.6428,107
90.7263,99
90.8099,116
90.8934,89
90.977,92
91.0605,87
91.1441,92
91.2277,90
91.3112,82
91.3948,78
91.4783,66
91.5619,80
91.6454,94
91.729,79
91.8125,65
91.8961,74
91.9797,82
92.0632,81
92.1468,66
92.2303,70
92.3139,71
92.3974,72
92.481,77
92.5646,69
92.6481,80
92.7317,83
92.8152,83
92.8988,68
92.9823,72
93.0659,92
93.1494,92
93.233,96
93.3166,97
93.4001,89
93.4837,98
93.5672,91
93.6508,79
93.7343,84
93.8179,63
93.9015,74
93.985,73
94.0686,59
94.1521,75
94.2357,72
94.3192,71
94.4028,93
94.4863,85
94.5699,81
94.6535,113
94.737,83
94.8206,89
94.9041,92
94.9877,104
95.0712,110
95.1548,108
95.2384,80
95.3219,84
95.4055,90
95.489,80
95.5726,80
95.6561,77
95.7397,82
95.8232,78
95.9068,83
95.9904,78
96.0739,83
96.1575,82
96.241,104
96.3246,89
96.4081,81
96.4917,103
96.5753,98
96.6588,69
96.7424,66
96.8259,62
96.9095,68
96.993,62
97.0766,78
97.1602,85
97.2437,72
97.3273,94
97.4108,88
97.4944,79
97.5779,71
97.6615,73
97.745,74
97.8286,66
97.9122,68
97.9957,89
98.0793,87
98.1628,73
98.2464,82
98.3299,91
98.4135,81
98.4971,85
98.5806,90
98.6642,77
98.7477,92
98.8313,103
98.9148,74
98.9984,87
99.0819,138
99.1655,101
99.2491,91
99.3326,99
99.4162,106
99.4997,74
99.5833,80
99.6668,96
99.7504,69
99.834,72
99.9175,90
100.001,85
100.085,72
100.168,84
100.252,66
100.335,75
100.419,79
100.502,80
100.586,68
100.67,66
100.753,66
100.837,94
100.92,85
101.004,72
101.087,109
101.171,77
101.254,82
101.338,92
101.422,80
101.505,80
101.589,69
101.672,60
101.756,68
101.839,83
101.923,79
102.006,84
102.09,84
102.174,72
102.257,93
102.341,91
102.424,90
102.508,84
102.591,78
102.675,79
102.758,65
102.842,103
102.926,78
103.009,82
103.093,61
103.176,74
103.26,70
103.343,80
103.427,77
103.51,91
103.594,74
103.678,83
103.761,93
103.845,77
103.928,84
104.012,85
104.095,65
104.179,84
104.262,83
104.346,85
104.43,70
104.513,93
104.597,89
104.68,75
104.764,88
104.847,75
104.931,81
105.014,94
105.098,72
105.182,75
105.265,87
105.349,90
105.432,90
105.516,74
105.599,80
105.683,69
105.766,81
105.85,93
105.934,77
106.017,87
106.101,94
106.184,82
106.268,84
106.351,88
106.435,103
106.518,111
106.602,113
106.686,98
106.769,75
106.853,92
106.936,82
107.02,111
107.103,83
107.187,64
107.27,85
107.354,73
107.438,58
107.521,87
107.605,93
107.688,73
107.772,85
107.855,84
107.939,88
108.022,78
108.106,90
108.19,72
108.273,90
108.357,77
108.44,80
108.524,68
108.607,83
108.691,56
108.774,71
108.858,92
108.942,92
109.025,77
109.109,71
109.192,65
109.276,71
109.359,66
109.443,87
109.526,68
109.61,77
109.694,79
109.777,66
109.861,93
109.944,78
110.028,87
110.111,78
110.195,81
110.278,89
110.362,69
110.446,92
110.529,82
110.613,87
110.696,83
110.78,81
110.863,87
110.947,72
111.031,78
111.114,72
111.198,72
111.281,69
111.365,64
111.448,71
111.532,83
111.615,75
111.699,75
111.783,96
111.866,71
111.95,74
112.033,72
112.117,77
112.2,73
112.284,68
112.367,66
112.451,74
112.535,66
112.618,78
112.702,65
112.785,62
112.869,70
112.952,79
113.036,87
113.119,85
113.203,62
113.287,79
113.37,73
113.454,84
113.537,73
113.621,73
113.704,65
113.788,72
113.871,77
113.955,91
114.039,81
114.122,80
114.206,77
114.289,87
114.373,74
114.456,106
114.54,109
114.623,140
114.707,111
114.791,82
114.874,92
114.958,77
115.041,106
115.125,111
115.208,85
115.292,87
115.375,77
115.459,91
115.543,60
115.626,91
115.71,75
115.793,78
115.877,94
115.96,78
116.044,94
116.127,63
116.211,75
116.295,70
116.378,84
116.462,91
116.545,75
116.629,72
116.712,88
116.796,70
116.879,77
116.963,75
117.047,71
117.13,72
117.214,87
117.297,75
117.381,90
117.464,84
117.548,71
117.631,81
117.715,80
117.799,80
117.882,71
117.966,80
118.049,82
118.133,101
118.216,71
118.3,108
118.383,96
118.467,101
118.551,89
118.634,68
118.718,93
118.801,88
118.885,92
118.968,85
119.052,81
119.135,77
119.219,65
119.303,85
119.386,78
119.47,81
119.553,79
119.637,69
119.72,85
119.804,66
119.887,97
119.971,77
119.996,75