File: XRD_csv/OPCM-14D 2.csv
Angle,Intensity
5.99618,839
6.05467,861
6.11316,804
6.17165,737
6.23014,763
6.28863,748
6.34711,744
6.4056,721
6.46409,722
6.52258,679
6.58107,647
6.63956,634
6.69805,583
6.75654,725
6.81503,614
6.87352,587
6.93201,593
6.9905,597
7.04899,574
7.10748,566
7.16597,609
7.22446,538
7.28295,583
7.34143,524
7.39992,566
7.45841,510
7.5169,507
7.57539,515
7.63388,519
7.69237,523
7.75086,485
7.80935,553
7.86784,510
7.92633,521
7.98482,514
8.04331,499
8.1018,517
8.16029,494
8.21878,515
8.27727,497
8.33576,494
8.39424,530
8.45273,491
8.51122,517
8.56971,421
8.6282,484
8.68669,448
8.74518,456
8.80367,480
8.86216,481
8.92065,516
8.97914,439
9.03763,461
9.09612,520
9.15461,527
9.2131,493
9.27159,449
9.33008,452
9.38857,462
9.44705,444
9.50554,424
9.56403,419
9.62252,389
9.68101,414
9.7395,445
9.79799,464
9.85648,433
9.91497,478
9.97346,434
10.0319,451
10.0904,459
10.1489,376
10.2074,438
10.2659,404
10.3244,402
10.3829,403
10.4414,391
10.4999,427
10.5584,374
10.6168,385
10.6753,357
10.7338,410
10.7923,386
10.8508,377
10.9093,387
10.9678,412
11.0263,411
11.0848,412
11.1432,398
11.2017,356
11.2602,423
11.3187,432
11.3772,379
11.4357,380
11.4942,409
11.5527,370
11.6112,352
11.6697,401
11.7281,419
11.7866,402
11.8451,407
11.9036,329
11.9621,335
12.0206,355
12.0791,364
12.1376,355
12.1961,399
12.2545,365
12.313,314
12.3715,335
12.43,313
12.4885,312
12.547,340
12.6055,346
12.664,338
12.7225,293
12.781,337
12.8394,340
12.8979,314
12.9564,331
13.0149,308
13.0734,313
13.1319,347
13.1904,340
13.2489,322
13.3074,305
13.3658,317
13.4243,318
13.4828,316
13.5413,321
13.5998,321
13.6583,378
13.7168,346
13.7753,334
13.8338,339
13.8923,395
13.9507,344
14.0092,347
14.0677,307
14.1262,279
14.1847,295
14.2432,303
14.3017,297
14.3602,301
14.4187,336
14.4771,290
14.5356,263
14.5941,292
14.6526,318
14.7111,288
14.7696,274
14.8281,281
14.8866,296
14.9451,274
15.0036,291
15.062,279
15.1205,295
15.179,296
15.2375,293
15.296,281
15.3545,292
15.413,332
15.4715,295
15.53,281
15.5884,284
15.6469,303
15.7054,279
15.7639,294
15.8224,304
15.8809,301
15.9394,299
15.9979,289
16.0564,301
16.1149,264
16.1733,253
16.2318,269
16.2903,278
16.3488,270
16.4073,263
16.4658,237
16.5243,259
16.5828,259
16.6413,235
16.6997,268
16.7582,260
16.8167,261
16.8752,281
16.9337,265
16.9922,263
17.0507,244
17.1092,282
17.1677,261
17.2262,226
17.2846,265
17.3431,270
17.4016,237
17.4601,244
17.5186,259
17.5771,243
17.6356,280
17.6941,280
17.7526,274
17.811,302
17.8695,285
17.928,345
17.9865,470
18.045,744
18.1035,1088
18.162,793
18.2205,368
18.279,273
18.3375,264
18.3959,283
18.4544,276
18.5129,263
18.5714,230
18.6299,200
18.6884,278
18.7469,251
18.8054,252
18.8639,211
18.9223,221
18.9808,235
19.0393,247
19.0978,240
19.1563,248
19.2148,221
19.2733,209
19.3318,226
19.3903,257
19.4487,240
19.5072,197
19.5657,221
19.6242,219
19.6827,225
19.7412,208
19.7997,243
19.8582,249
19.9167,212
19.9752,256
20.0336,259
20.0921,256
20.1506,242
20.2091,241
20.2676,235
20.3261,251
20.3846,217
20.4431,236
20.5016,218
20.56,250
20.6185,252
20.677,252
20.7355,381
20.794,1347
20.8525,1054
20.911,4481
20.9695,2704
21.028,530
21.0865,368
21.1449,310
21.2034,271
21.2619,254
21.3204,227
21.3789,204
21.4374,244
21.4959,205
21.5544,250
21.6129,197
21.6713,200
21.7298,258
21.7883,224
21.8468,222
21.9053,219
21.9638,238
22.0223,225
22.0808,238
22.1393,218
22.1978,261
22.2562,246
22.3147,291
22.3732,535
22.4317,377
22.4902,216
22.5487,212
22.6072,243
22.6657,232
22.7242,228
22.7826,198
22.8411,249
22.8996,272
22.9581,269
23.0166,285
23.0751,316
23.1336,285
23.1921,286
23.2506,558
23.3091,349
23.3675,231
23.426,215
23.4845,235
23.543,254
23.6015,200
23.66,244
23.7185,215
23.777,215
23.8355,211
23.8939,206
23.9524,246
24.0109,376
24.0694,358
24.1279,296
24.1864,314
24.2449,248
24.3034,327
24.3619,781
24.4204,528
24.4788,246
24.5373,230
24.5958,201
24.6543,216
24.7128,188
24.7713,230
24.8298,205
24.8883,215
24.9468,215
25.0052,184
25.0637,199
25.1222,196
25.1807,204
25.2392,186
25.2977,222
25.3562,229
25.4147,211
25.4732,258
25.5317,260
25.5901,221
25.6486,226
25.7071,259
25.7656,235
25.8241,227
25.8826,227
25.9411,212
25.9996,209
26.0581,200
26.1165,197
26.175,233
26.2335,210
26.292,238
26.3505,248
26.409,269
26.4675,559
26.526,452
26.5845,497
26.643,853
26.7014,4351
26.7599,2071
26.8184,538
26.8769,346
26.9354,269
26.9939,268
27.0524,424
27.1109,531
27.1694,397
27.2278,289
27.2863,349
27.3448,365
27.4033,541
27.4618,605
27.5203,635
27.5788,491
27.6373,292
27.6958,250
27.7543,343
27.8127,358
27.8712,417
27.9297,626
27.9882,544
28.0467,337
28.1052,364
28.1637,340
28.2222,322
28.2807,270
28.3391,240
28.3976,260
28.4561,271
28.5146,229
28.5731,220
28.6316,296
28.6901,320
28.7486,353
28.8071,339
28.8655,233
28.924,272
28.9825,263
29.041,269
29.0995,265
29.158,302
29.2165,317
29.275,337
29.3335,342
29.392,476
29.4504,557
29.5089,648
29.5674,506
29.6259,403
29.6844,335
29.7429,307
29.8014,311
29.8599,254
29.9184,252
29.9768,302
30.0353,358
30.0938,353
30.1523,321
30.2108,284
30.2693,254
30.3278,256
30.3863,272
30.4448,236
30.5033,269
30.5617,313
30.6202,323
30.6787,249
30.7372,276
30.7957,224
30.8542,260
30.91268,219
30.9712,237
31.0297,241
31.0881,231
31.1466,240
31.2051,230
31.2636,235
31.3221,241
31.3806,209
31.4391,228
31.4976,210
31.5561,225
31.6146,243
31.673,222
31.7315,229
31.79,257
31.8485,220
31.907,256
31.9655,230
32.024,262
32.0825,334
32.141,462
32.1994,572
32.2579,446
32.3164,316
32.3749,297
32.4334,268
32.4919,269
32.5504,329
32.6089,365
32.6674,286
32.7259,252
32.7843,217
32.8428,257
32.9013,209
32.9598,232
33.0183,236
33.0768,222
33.1353,231
33.1938,200
33.2523,203
33.3107,232
33.3692,230
33.4277,242
33.4862,249
33.5447,291
33.6032,267
33.6617,248
33.7202,251
33.7787,328
33.8372,285
33.8956,296
33.9541,322
34.0126,369
34.0711,534
34.1296,861
34.1881,818
34.2466,640
34.3051,410
34.3636,369
34.422,304
34.4805,236
34.539,240
34.5975,210
34.656,242
34.7145,184
34.773,210
34.8315,216
34.89,189
34.9485,214
35.0069,216
35.0654,218
35.1239,215
35.1824,236
35.2409,196
35.2994,196
35.3579,208
35.4164,209
35.4749,169
35.5333,188
35.5918,195
35.6503,215
35.7088,176
35.7673,198
35.8258,187
35.8843,173
35.9428,184
36.0013,185
36.0598,231
36.1182,201
36.1767,188
36.2352,220
36.2937,176
36.3522,153
36.4107,163
36.4692,184
36.5277,244
36.5862,288
36.6446,257
36.7031,263
36.7616,162
36.8201,173
36.8786,176
36.9371,180
36.9956,193
37.0541,199
37.1126,194
37.1711,151
37.2295,175
37.288,175
37.3465,168
37.405,196
37.4635,171
37.522,163
37.5805,174
37.639,154
37.6975,146
37.7559,183
37.8144,156
37.8729,172
37.9314,164
37.9899,164
38.0484,153
38.1069,143
38.1654,156
38.2239,156
38.2823,160
38.3408,153
38.3993,154
38.4578,161
38.5163,146
38.5748,182
38.6333,225
38.6918,193
38.7503,224
38.8088,158
38.8672,154
38.9257,169
38.9842,162
39.0427,143
39.1012,196
39.1597,174
39.2182,179
39.2767,163
39.3352,190
39.3936,183
39.4521,237
39.5106,304
39.5691,344
39.6276,256
39.6861,225
39.7446,187
39.8031,176
39.8616,161
39.9201,148
39.9785,146
40.037,157
40.0955,166
40.154,156
40.2125,156
40.271,163
40.3295,169
40.388,137
40.4465,152
40.5049,173
40.5634,165
40.6219,155
40.6804,142
40.7389,147
40.7974,179
40.8559,153
40.9144,173
40.9729,171
41.0314,180
41.0898,174
41.1483,212
41.2068,194
41.2653,215
41.3238,193
41.3823,174
41.4408,169
41.4993,153
41.5578,171
41.6162,169
41.6747,165
41.7332,146
41.7917,165
41.8502,192
41.9087,195
41.9672,169
42.0257,190
42.0842,153
42.1427,164
42.2011,154
42.2596,175
42.3181,189
42.3766,282
42.4351,848
42.4936,2317
42.5521,882
42.6106,1158
42.6691,296
42.7275,207
42.786,196
42.8445,157
42.903,174
42.9615,169
43.02,135
43.0785,164
43.137,167
43.1955,187
43.254,178
43.3124,190
43.3709,147
43.4294,173
43.4879,156
43.5464,162
43.6049,190
43.6634,187
43.7219,171
43.7804,152
43.8388,188
43.8973,166
43.9558,176
44.0143,156
44.0728,188
44.1313,173
44.1898,182
44.2483,152
44.3068,166
44.3653,135
44.4237,153
44.4822,154
44.5407,161
44.5992,157
44.6577,183
44.7162,192
44.7747,157
44.8332,167
44.8917,128
44.9501,146
45.0086,146
45.0671,134
45.1256,139
45.1841,132
45.2426,135
45.3011,158
45.3596,168
45.4181,187
45.4766,197
45.535,349
45.5935,250
45.652,285
45.7105,218
45.769,206
45.8275,258
45.886,254
45.9445,227
46.003,215
46.0614,164
46.1199,137
46.1784,164
46.2369,144
46.2954,162
46.3539,148
46.4124,153
46.4709,150
46.5294,132
46.5879,148
46.6463,164
46.7048,145
46.7633,153
46.8218,179
46.8803,184
46.9388,180
46.9973,220
47.0558,261
47.1143,335
47.1727,453
47.2312,378
47.2897,372
47.3482,271
47.4067,238
47.4652,211
47.5237,207
47.5822,212
47.6407,165
47.6991,193
47.7576,188
47.8161,183
47.8746,174
47.9331,162
47.9916,175
48.0501,125
48.1086,148
48.1671,155
48.2256,152
48.284,157
48.3425,135
48.401,141
48.4595,145
48.518,171
48.5765,203
48.635,165
48.6935,153
48.752,187
48.8104,168
48.8689,207
48.9274,175
48.9859,173
49.0444,190
49.1029,154
49.1614,171
49.2199,157
49.2784,139
49.3369,140
49.3953,146
49.4538,133
49.5123,148
49.5708,154
49.6293,175
49.6878,151
49.7463,235
49.8048,523
49.8633,206
49.9217,345
49.9802,224
50.0387,193
50.0972,204
50.1557,199
50.2142,198
50.2727,172
50.3312,184
50.3897,178
50.4482,187
50.5066,203
50.5651,329
50.6236,307
50.6821,265
50.7406,282
50.7991,328
50.8576,358
50.9161,228
50.9746,230
51.033,180
51.0915,163
51.15,146
51.2085,154
51.267,161
51.3255,126
51.384,156
51.4425,130
51.501,133
51.5595,124
51.6179,124
51.6764,155
51.7349,160
51.7934,156
51.8519,131
51.9104,125
51.9689,143
52.0274,119
52.0859,119
52.1443,124
52.2028,161
52.2613,129
52.3198,140
52.3783,141
52.4368,142
52.4953,143
52.5538,133
52.6123,126
52.6708,146
52.7292,131
52.7877,145
52.8462,144
52.9047,142
52.9632,144
53.0217,147
53.0802,135
53.1387,140
53.1972,126
53.2556,146
53.3141,142
53.3726,152
53.4311,150
53.4896,139
53.5481,128
53.6066,134
53.6651,119
53.7236,123
53.7821,135
53.8405,125
53.899,131
53.9575,122
54.016,133
54.0745,150
54.133,126
54.1915,129
54.25,157
54.3085,155
54.3669,235
54.4254,232
54.4839,184
54.5424,184
54.6009,148
54.6594,151
54.7179,139
54.7764,133
54.8349,144
54.8934,165
54.9518,162
55.0103,141
55.0688,165
55.1273,145
55.1858,152
55.2443,111
55.3028,125
55.3613,175
55.4198,165
55.4782,135
55.5367,116
55.5952,133
55.6537,142
55.7122,134
55.7707,135
55.8292,116
55.8877,131
55.9462,131
56.0047,123
56.0631,120
56.1216,125
56.1801,139
56.2386,130
56.2971,137
56.3556,130
56.4141,135
56.4726,137
56.5311,133
56.5895,147
56.648,143
56.7065,134
56.765,132
56.8235,135
56.882,136
56.9405,123
56.999,111
57.0575,126
57.1159,139
57.1744,126
57.2329,115
57.2914,151
57.3499,153
57.4084,139
57.4669,145
57.5254,129
57.5839,155
57.6424,151
57.7008,120
57.7593,126
57.8178,125
57.8763,130
57.9348,111
57.9933,119
58.0518,161
58.1103,152
58.1688,147
58.2272,163
58.2857,111
58.3442,137
58.4027,128
58.4612,129
58.5197,139
58.5782,124
58.6367,129
58.6952,141
58.7537,126
58.8121,130
58.8706,126
58.9291,101
58.9876,123
59.0461,124
59.1046,128
59.1631,122
59.2216,116
59.2801,121
59.3385,141
59.397,147
59.4555,135
59.514,142
59.5725,136
59.631,118
59.6895,112
59.748,126
59.8065,126
59.865,152
59.9234,166
59.9819,466
60.0404,502
60.0989,219
60.1574,338
60.2159,270
60.2744,132
60.3329,134
60.3914,122
60.4498,129
60.5083,131
60.5668,122
60.6253,125
60.6838,120
60.7423,128
60.8008,125
60.8593,130
60.9178,140
60.9763,128
61.0347,130
61.0932,119
61.1517,143
61.2102,139
61.2687,129
61.3272,112
61.3857,118
61.4442,112
61.5027,120
61.5611,146
61.6196,135
61.6781,126
61.7366,108
61.7951,136
61.8536,107
61.9121,114
61.9706,111
62.0291,115
62.0876,121
62.146,115
62.2045,140
62.263,115
62.3215,135
62.38,125
62.4385,125
62.497,133
62.5555,151
62.614,160
62.6724,151
62.7309,145
62.7894,134
62.8479,131
62.9064,123
62.9649,121
63.0234,105
63.0819,129
63.1404,119
63.1989,105
63.2573,113
63.3158,114
63.3743,108
63.4328,137
63.4913,121
63.5498,109
63.6083,134
63.6668,124
63.7253,140
63.7837,116
63.8422,134
63.9007,125
63.9592,129
64.0177,121
64.0762,139
64.1347,143
64.1932,137
64.2517,168
64.3102,189
64.3686,172
64.4271,143
64.4856,161
64.5441,111
64.6026,119
64.6611,116
64.7196,108
64.7781,111
64.8366,115
64.895,140
64.9535,115
65.012,84
65.0705,116
65.129,144
65.1875,129
65.246,118
65.3045,107
65.363,124
65.4215,101
65.4799,126
65.5384,115
65.5969,105
65.6554,103
65.7139,125
65.7724,171
65.8309,172
65.8894,122
65.9479,132
66.0063,142
66.0648,116
66.1233,108
66.1818,102
66.2403,132
66.2988,136
66.3573,134
66.4158,114
66.4743,107
66.5328,110
66.5912,112
66.6497,92
66.7082,100
66.7667,107
66.8252,108
66.8837,116
66.9422,110
67.0007,115
67.0592,96
67.1176,101
67.1761,121
67.2346,113
67.2931,137
67.3516,108
67.4101,109
67.4686,119
67.5271,124
67.5856,112
67.644,113
67.7025,134
67.761,331
67.8195,448
67.878,169
67.9365,197
67.995,294
68.0535,171
68.112,164
68.1705,263
68.2289,274
68.2874,179
68.3459,216
68.4044,220
68.4629,123
68.5214,130
68.5799,92
68.6384,99
68.6969,96
68.7553,114
68.8138,134
68.8723,153
68.9308,153
68.9893,144
69.0478,142
69.1063,135
69.1648,120
69.2233,114
69.2818,107
69.3402,109
69.3987,110
69.4572,107
69.5157,110
69.5742,80
69.6327,113
69.6912,86
69.7497,102
69.8082,112
69.8666,115
69.9251,120
69.9836,107
70.0421,123
70.1006,115
70.1591,123
70.2176,113
70.2761,96
70.3346,110
70.3931,93
70.4515,108
70.51,101
70.5685,116
70.627,88
70.6855,135
70.744,113
70.8025,121
70.861,118
70.9195,107
70.9779,108
71.0364,121
71.0949,108
71.1534,118
71.2119,108
71.2704,115
71.3289,118
71.3874,101
71.4459,124
71.5044,114
71.5628,157
71.6213,194
71.6798,144
71.7383,135
71.7968,195
71.8553,168
71.9138,120
71.9723,123
72.0308,119
72.0892,105
72.1477,102
72.2062,122
72.2647,108
72.3232,111
72.3817,101
72.4402,107
72.4987,99
72.5572,104
72.6157,110
72.6741,113
72.7326,91
72.7911,116
72.8496,111
72.9081,120
72.9666,103
73.0251,104
73.0836,92
73.1421,114
73.2005,120
73.259,128
73.3175,103
73.376,119
73.4345,115
73.493,163
73.5515,168
73.61,130
73.6685,161
73.727,156
73.7854,152
73.8439,115
73.9024,111
73.9609,109
74.0194,130
74.0779,90
74.1364,109
74.1949,110
74.2534,92
74.3118,110
74.3703,119
74.4288,102
74.4873,119
74.5458,111
74.6043,96
74.6628,101
74.7213,120
74.7798,108
74.8383,101
74.8967,100
74.9552,87
75.0137,88
75.0722,109
75.1307,104
75.1892,97
75.2477,105
75.3062,101
75.3647,130
75.4231,112
75.4816,105
75.5401,121
75.5986,105
75.6571,153
75.7156,360
75.7741,190
75.8326,125
75.8911,145
75.9496,220
76.008,134
76.0665,108
76.125,92
76.1835,101
76.242,103
76.3005,91
76.359,109
76.4175,97
76.476,89
76.5344,116
76.5929,91
76.6514,101
76.7099,107
76.7684,103
76.8269,97
76.8854,94
76.9439,116
77.0024,112
77.0608,113
77.1193,99
77.1778,94
77.2363,100
77.2948,89
77.3533,102
77.4118,93
77.4703,103
77.5288,96
77.5873,102
77.6457,128
77.7042,139
77.7627,130
77.8212,101
77.8797,109
77.9382,115
77.9967,119
78.0552,82
78.1137,91
78.1721,105
78.2306,99
78.2891,104
78.3476,103
78.4061,100
78.4646,102
78.5231,110
78.5816,102
78.6401,102
78.6986,118
78.757,99
78.8155,96
78.874,87
78.9325,98
78.991,126
79.0495,91
79.108,125
79.1665,124
79.225,123
79.2834,107
79.3419,121
79.4004,88
79.4589,110
79.5174,104
79.5759,97
79.6344,97
79.6929,101
79.7514,92
79.8099,97
79.8683,122
79.9268,132
79.9853,98
80.0438,112
80.1023,124
80.1608,130
80.2193,103
80.2778,96
80.3363,115
80.3947,110
80.4532,119
80.5117,97
80.5702,90
80.6287,94
80.6872,84
80.7457,118
80.8042,93
80.8627,107
80.9212,93
80.9796,113
81.0381,98
81.0966,120
81.1551,118
81.2136,171
81.2721,114
81.3306,111
81.3891,109
81.4476,120
81.506,207
81.5645,125
81.623,116
81.6815,118
81.74,122
81.7985,135
81.857,123
81.9155,100
81.974,96
82.0325,88
82.0909,101
82.1494,109
82.2079,84
82.2664,93
82.3249,87
82.3834,92
82.4419,90
82.5004,112
82.5589,87
82.6173,102
82.6758,107
82.7343,90
82.7928,104
82.8513,105
82.9098,86
82.9683,112
83.0268,93
83.0853,108
83.1438,92
83.2022,99
83.2607,101
83.3192,94
83.3777,105
83.4362,125
83.4947,99
83.5532,109
83.6117,93
83.6702,100
83.7286,105
83.7871,161
83.8456,176
83.9041,156
83.9626,109
84.0211,104
84.0796,150
84.1381,111
84.1966,90
84.2551,98
84.3135,94
84.372,114
84.4305,90
84.489,97
84.5475,91
84.606,133
84.6645,112
84.723,147
84.7815,119
84.8399,109
84.8984,137
84.9569,124
85.0154,91
85.0739,123
85.1324,114
85.1909,118
85.2494,109
85.3079,100
85.3664,80
85.4248,108
85.4833,104
85.5418,103
85.6003,97
85.6588,112
85.7173,87
85.7758,91
85.8343,82
85.8928,97
85.9512,99
86.0097,90
86.0682,102
86.1267,114
86.1852,111
86.2437,114
86.3022,94
86.3607,98
86.4192,131
86.4776,107
86.5361,122
86.5946,98
86.6531,101
86.7116,108
86.7701,104
86.8286,100
86.8871,97
86.9456,89
87.0041,93
87.0625,98
87.121,100
87.1795,88
87.238,88
87.2965,87
87.355,104
87.4135,91
87.472,82
87.5305,99
87.5889,94
87.6474,96
87.7059,94
87.7644,87
87.8229,91
87.8814,98
87.9399,94
87.9984,92
88.0569,94
88.1154,101
88.1738,81
88.2323,98
88.2908,98
88.3493,103
88.4078,110
88.4663,69
88.5248,92
88.5833,97
88.6418,112
88.7002,109
88.7587,98
88.8172,101
88.8757,99
88.9342,79
88.9927,102
89.0512,98
89.1097,96
89.1682,97
89.2267,80
89.2851,99
89.3436,73
89.4021,88
89.4606,97
89.5191,94
89.5776,86
89.6361,91
89.6946,81
89.7531,107
89.8115,91
89.87,94
89.9285,96
89.987,93
89.9954,93